timestamp,acc_x,acc_y,acc_z,magn_x,magn_y,magn_z,gyro_x,gyro_y,gyro_z
1701526023.145,19.609,19.609,-19.609,-0.0006000000000000001,-0.0005,0.0344,-0.023,-0.051000000000000004,-0.075
1701526023.185,19.609,19.609,-19.609,0.00030000000000000003,-0.0002,-0.036500000000000005,-0.034,0.021,-0.139
1701526023.225,19.609,19.609,-19.609,-0.0001,-0.0014,0.0492,-0.025,0.027,-0.148
1701526023.2649999,19.609,19.609,-19.609,0.0019,-0.0026000000000000003,0.0292,-0.054,0.029,-0.148
1701526023.305,19.609,19.609,-19.609,0.0006000000000000001,0.0,-0.0247,-0.051000000000000004,0.006,-0.135
1701526023.345,19.609,19.609,-19.609,0.0006000000000000001,-0.0009000000000000001,-0.005,-0.01,0.005,-0.133
1701526023.385,19.609,19.609,-19.609,-0.0017000000000000001,-0.0025,-0.014100000000000001,0.0,-0.008,-0.135
1701526023.425,19.609,19.609,-19.609,0.0,-0.0009000000000000001,0.0364,-0.007,-0.032,-0.11800000000000001
1701526023.465,19.609,19.609,-19.609,0.0011,0.00030000000000000003,-0.012,-0.021,-0.044,-0.11
1701526023.5049999,19.609,19.609,-19.609,-0.0001,-0.0017000000000000001,-0.0166,-0.012,-0.058,-0.11800000000000001
1701526023.545,19.609,19.609,-19.609,0.0006000000000000001,-0.0001,0.0081,0.003,-0.052000000000000005,-0.112
1701526023.585,19.609,19.609,-19.609,-0.0001,-0.00030000000000000003,-0.0081,0.002,-0.06,-0.114
1701526023.625,19.609,19.609,-19.609,0.0005,-0.0008,0.0078000000000000005,0.0,-0.042,-0.108
1701526023.665,19.609,19.609,-19.609,-0.0006000000000000001,-0.003,-0.0092,0.0,-0.051000000000000004,-0.108
1701526023.705,19.609,19.609,-19.609,0.0014,-0.0021000000000000003,0.0238,-0.004,-0.051000000000000004,-0.112
1701526023.745,19.609,19.609,-19.609,-0.0004,-0.0002,-0.034300000000000004,-0.006,-0.054,-0.109
1701526023.785,19.609,19.609,-19.609,-0.0011,-0.0014,0.0352,-0.001,-0.055,-0.108
1701526023.825,19.609,19.609,-19.609,-0.0007,0.0006000000000000001,-0.031900000000000005,-0.003,-0.064,-0.111
1701526023.865,19.609,19.609,-19.609,0.0026000000000000003,0.001,0.029500000000000002,0.0,-0.061,-0.111
1701526023.905,19.609,19.609,-19.609,0.001,-0.0014,-0.0095,-0.001,-0.063,-0.109
1701526023.945,19.609,19.609,-19.609,0.0,-0.0006000000000000001,-0.014700000000000001,0.001,-0.052000000000000005,-0.116
1701526023.985,19.609,19.609,-19.609,0.0015,0.0,0.037200000000000004,-0.018000000000000002,-0.038,-0.106
1701526024.025,19.609,19.609,-19.609,0.0,-0.0014,-0.025,-0.013000000000000001,-0.046,-0.11
1701526024.065,19.609,19.609,-19.609,-0.0039000000000000003,-0.0028,0.0106,0.0,-0.043000000000000003,-0.125
1701526024.105,19.609,19.609,-19.609,-0.0006000000000000001,-0.0014,-0.0267,0.006,-0.046,-0.112
1701526024.145,19.609,19.609,-19.609,-0.0014,-0.001,0.0264,-0.041,-0.031,-0.111
1701526024.185,19.609,19.609,-19.609,-0.0018000000000000002,0.0009000000000000001,0.0001,-0.02,-0.027,-0.114
1701526024.225,19.609,19.609,-19.609,0.0034000000000000002,-0.0005,-0.0267,-0.006,-0.032,-0.121
1701526024.265,19.609,19.609,-19.609,-0.00030000000000000003,0.001,0.027800000000000002,-0.004,-0.035,-0.106
1701526024.305,19.609,19.609,-19.609,0.0005,-0.0011,-0.0374,0.004,-0.041,-0.116
1701526024.345,19.609,19.609,-19.609,0.0017000000000000001,0.0001,0.0344,-0.001,-0.029,-0.113
1701526024.385,19.609,19.609,-19.609,0.0009000000000000001,0.00030000000000000003,-0.0324,-0.012,-0.036000000000000004,-0.113
1701526024.425,19.609,19.609,-19.609,0.0016,-0.0024000000000000002,0.0396,-0.012,-0.034,-0.11800000000000001
1701526024.465,19.609,19.609,-19.609,0.0029000000000000002,-0.0007,-0.0463,-0.005,-0.038,-0.114
1701526024.505,19.609,19.609,-19.609,0.0011,-0.001,0.039400000000000004,-0.01,-0.038,-0.117
1701526024.545,19.609,19.609,-19.609,0.0,0.0009000000000000001,-0.0357,-0.016,-0.042,-0.112
1701526024.585,19.609,19.609,-19.609,0.0007,-0.001,0.0333,-0.008,-0.04,-0.111
1701526024.625,19.609,19.609,-19.609,-0.0005,0.00030000000000000003,-0.0224,0.0,-0.045,-0.112
1701526024.665,19.609,19.609,-19.609,0.0015,-0.0005,-0.0055000000000000005,-0.001,-0.042,-0.114
1701526024.705,19.609,19.609,-19.609,-0.0006000000000000001,0.0,0.0094,-0.013000000000000001,-0.046,-0.114
1701526024.745,19.609,19.609,-19.609,-0.0019,-0.0018000000000000002,0.0009000000000000001,-0.007,-0.054,-0.10300000000000001
1701526024.7849998,19.609,19.609,-19.609,0.002,0.0001,-0.0244,0.005,-0.035,-0.107
1701526024.825,19.609,19.609,-19.609,0.0002,0.0001,0.033600000000000005,0.018000000000000002,-0.037,-0.127
1701526024.865,19.609,19.609,-19.609,-0.0004,-0.0004,-0.030000000000000002,-0.012,-0.041,-0.11900000000000001
1701526024.905,19.609,19.609,-19.609,0.0018000000000000002,-0.0006000000000000001,0.0046,-0.02,-0.034,-0.107
1701526024.945,19.609,19.609,-19.609,-0.0018000000000000002,0.0024000000000000002,0.0132,-0.005,-0.042,-0.127
1701526024.985,19.609,19.609,-19.609,-0.0017000000000000001,0.001,-0.030600000000000002,-0.006,-0.04,-0.114
1701526025.0249999,19.609,19.609,-19.609,0.0,-0.0014,0.035500000000000004,-0.001,-0.042,-0.112
1701526025.065,19.609,19.609,-19.609,-0.0002,-0.00030000000000000003,0.0175,0.001,-0.03,-0.114
1701526025.105,19.609,19.609,-19.609,0.0,-0.0023,-0.023200000000000002,0.0,-0.031,-0.111
1701526025.145,19.609,19.609,-19.609,-0.0017000000000000001,-0.0014,0.0239,-0.004,-0.043000000000000003,-0.113
1701526025.185,19.609,19.609,-19.609,0.0004,0.002,-0.0375,-0.005,-0.048,-0.127
1701526025.225,19.609,19.609,-19.609,-0.0007,-0.0004,0.028200000000000003,-0.005,-0.048,-0.12
1701526025.2649999,19.609,19.609,-19.609,0.0012000000000000001,-0.0006000000000000001,0.0022,-0.003,-0.053,-0.116
1701526025.305,19.609,19.609,-19.609,-0.0002,0.0005,-0.0344,-0.005,-0.048,-0.121
1701526025.345,19.609,19.609,-19.609,-0.0021000000000000003,0.0008,0.0347,-0.001,-0.045,-0.122
1701526025.385,19.609,19.609,-19.609,0.001,0.0006000000000000001,-0.0354,0.005,-0.053,-0.11800000000000001
1701526025.425,19.609,19.609,-19.609,0.0034000000000000002,-0.001,0.0067,-0.001,-0.056,-0.12
1701526025.465,19.609,19.609,-19.609,0.0007,-0.0018000000000000002,0.0014,0.015,-0.06,-0.106
1701526025.5049999,19.609,19.609,-19.609,-0.0021000000000000003,-0.0022,0.005200000000000001,0.002,-0.044,-0.112
1701526025.545,19.609,19.609,-19.609,0.0015,0.0001,-0.044700000000000004,0.007,-0.031,-0.12
1701526025.585,19.609,19.609,-19.609,0.0017000000000000001,-0.0013000000000000002,0.048100000000000004,-0.006,-0.049,-0.115
1701526025.625,19.609,19.609,-19.609,-0.0014,0.0004,-0.0357,-0.009000000000000001,-0.044,-0.113
1701526025.665,19.609,19.609,-19.609,-0.0004,-0.0017000000000000001,0.029500000000000002,0.002,-0.052000000000000005,-0.123
1701526025.705,19.609,19.609,-19.609,-0.00030000000000000003,-0.0013000000000000002,-0.0267,-0.011,-0.043000000000000003,-0.107
1701526025.745,19.609,19.609,-19.609,0.0005,-0.0015,0.0155,-0.007,-0.045,-0.113
1701526025.785,19.609,19.609,-19.609,-0.0001,-0.0023,-0.009300000000000001,-0.003,-0.009000000000000001,-0.116
1701526025.825,19.609,19.609,-19.609,-0.0006000000000000001,0.0,-0.0119,-0.01,-0.033,-0.11
1701526025.865,19.609,19.609,-19.609,0.0001,0.0011,-0.020200000000000003,-0.012,-0.054,-0.113
1701526025.905,19.609,19.609,-19.609,-0.0009000000000000001,-0.0015,0.0402,-0.011,-0.049,-0.121
1701526025.945,19.609,19.609,-19.609,0.0012000000000000001,-0.0018000000000000002,-0.022000000000000002,-0.013000000000000001,-0.045,-0.125
1701526025.985,19.609,19.609,-19.609,-0.0012000000000000001,-0.0018000000000000002,0.0176,-0.013000000000000001,-0.045,-0.113
1701526026.025,19.609,19.609,-19.609,0.001,-0.0015,-0.0162,-0.009000000000000001,-0.043000000000000003,-0.112
1701526026.065,19.609,19.609,-19.609,0.0007,-0.0034000000000000002,0.0095,-0.004,-0.05,-0.112
1701526026.105,19.609,19.609,-19.609,0.0008,0.0023,-0.014700000000000001,0.001,-0.045,-0.106
1701526026.145,19.609,19.609,-19.609,-0.001,-0.0012000000000000001,0.0189,-0.008,-0.047,-0.11
1701526026.185,19.609,19.609,-19.609,0.0016,-0.00030000000000000003,-0.045000000000000005,-0.011,-0.052000000000000005,-0.1
1701526026.225,19.609,19.609,-19.609,-0.0004,-0.0017000000000000001,0.047900000000000005,0.033,-0.037,-0.107
1701526026.265,19.609,19.609,-19.609,0.0,0.0011,-0.046900000000000004,0.003,-0.045,-0.12
1701526026.305,19.609,19.609,-19.609,0.0007,-0.0026000000000000003,0.035500000000000004,-0.021,-0.046,-0.113
1701526026.345,19.609,19.609,-19.609,0.0008,-0.0012000000000000001,-0.0337,-0.02,-0.036000000000000004,-0.106
1701526026.385,19.609,19.609,-19.609,-0.0017000000000000001,0.0014,0.010700000000000001,0.0,-0.047,-0.12
1701526026.425,19.609,19.609,-19.609,0.0001,0.0004,0.0159,-0.01,-0.048,-0.111
1701526026.465,19.609,19.609,-19.609,-0.0001,-0.0001,-0.0333,-0.012,-0.045,-0.101
1701526026.505,19.609,19.609,-19.609,0.002,-0.0009000000000000001,0.0269,-0.004,-0.029,-0.113
1701526026.545,19.609,19.609,-19.609,0.0005,-0.0001,-0.0108,-0.008,-0.026000000000000002,-0.111
1701526026.585,19.609,19.609,-19.609,0.001,-0.00030000000000000003,-0.0303,-0.021,-0.027,-0.116
1701526026.625,19.609,19.609,-19.609,0.001,0.0001,0.032,-0.014,-0.033,-0.116
1701526026.665,19.609,19.609,-19.609,-0.0009000000000000001,-0.0024000000000000002,-0.0183,-0.007,-0.031,-0.12
1701526026.705,19.609,19.609,-19.609,-0.001,-0.0006000000000000001,0.026000000000000002,-0.013000000000000001,-0.03,-0.114
1701526026.745,19.609,19.609,-19.609,0.001,-0.0015,-0.019200000000000002,-0.007,-0.039,-0.112
1701526026.7849998,19.609,19.609,-19.609,-0.0017000000000000001,-0.001,-0.0044,0.003,-0.044,-0.109
1701526026.825,19.609,19.609,-19.609,-0.0002,-0.0017000000000000001,0.013300000000000001,0.002,-0.046,-0.111
1701526026.865,19.609,19.609,-19.609,0.0029000000000000002,-0.00030000000000000003,-0.006900000000000001,0.006,-0.051000000000000004,-0.112
1701526026.905,19.609,19.609,-19.609,-0.001,-0.0001,0.0123,-0.005,-0.046,-0.109
1701526026.945,19.609,19.609,-19.609,0.0,-0.001,-0.024900000000000002,-0.006,-0.049,-0.105
1701526026.985,19.609,19.609,-19.609,0.00030000000000000003,0.0014,0.0263,0.008,-0.043000000000000003,-0.114
1701526027.0249999,19.609,19.609,-19.609,-0.0024000000000000002,0.0018000000000000002,-0.0308,0.007,-0.04,-0.116
1701526027.065,19.609,19.609,-19.609,0.0012000000000000001,-0.0012000000000000001,0.0341,-0.02,-0.035,-0.107
1701526027.105,19.609,19.609,-19.609,0.0004,-0.0013000000000000002,-0.020300000000000002,-0.011,-0.036000000000000004,-0.115
1701526027.145,19.609,19.609,-19.609,-0.0029000000000000002,0.0009000000000000001,0.0234,0.0,-0.04,-0.123
1701526027.185,19.609,19.609,-19.609,-0.0024000000000000002,-0.0006000000000000001,-0.0081,-0.008,-0.04,-0.111
1701526027.225,19.609,19.609,-19.609,-0.001,-0.0001,-0.024300000000000002,-0.009000000000000001,-0.044,-0.113
1701526027.2649999,19.609,19.609,-19.609,-0.00030000000000000003,0.0013000000000000002,0.0205,0.0,-0.033,-0.115
1701526027.305,19.609,19.609,-19.609,-0.0015,-0.0007,-0.034,-0.008,-0.036000000000000004,-0.11800000000000001
1701526027.345,19.609,19.609,-19.609,0.0016,-0.0001,0.030000000000000002,-0.007,-0.042,-0.115
1701526027.385,19.609,19.609,-19.609,0.0019,0.0009000000000000001,-0.0256,-0.009000000000000001,-0.044,-0.11900000000000001
1701526027.425,19.609,19.609,-19.609,0.0059,0.0008,-0.0025,-0.009000000000000001,-0.045,-0.112
1701526027.465,19.609,19.609,-19.609,-0.002,0.0,-0.0034000000000000002,-0.015,-0.046,-0.11900000000000001
1701526027.5049999,19.609,19.609,-19.609,0.0012000000000000001,-0.0006000000000000001,0.025500000000000002,-0.005,-0.045,-0.116
1701526027.545,19.609,19.609,-19.609,0.0007,-0.0008,-0.0142,-0.003,-0.047,-0.112
1701526027.585,19.609,19.609,-19.609,-0.0006000000000000001,-0.00030000000000000003,0.0114,0.002,-0.05,-0.113
1701526027.625,19.609,19.609,-19.609,-0.0002,-0.0015,-0.0391,0.001,-0.052000000000000005,-0.11800000000000001
1701526027.665,19.609,19.609,-19.609,-0.00030000000000000003,-0.0012000000000000001,0.0322,-0.013000000000000001,-0.046,-0.107
1701526027.705,19.609,19.609,-19.609,-0.0004,-0.00030000000000000003,-0.039400000000000004,-0.012,-0.037,-0.1
1701526027.745,19.609,19.609,-19.609,0.0,0.0005,0.0352,0.008,-0.032,-0.128
1701526027.785,19.609,19.609,-19.609,0.001,-0.0033,-0.0463,0.001,-0.033,-0.111
1701526027.825,19.609,19.609,-19.609,0.002,-0.002,0.041600000000000005,-0.023,-0.033,-0.108
1701526027.865,19.609,19.609,-19.609,-0.00030000000000000003,-0.0006000000000000001,-0.037200000000000004,-0.011,-0.029,-0.128
1701526027.905,19.609,19.609,-19.609,-0.0032,-0.0016,0.0267,-0.005,-0.039,-0.122
1701526027.945,19.609,19.609,-19.609,0.0012000000000000001,0.0023,-0.0131,-0.011,-0.045,-0.10300000000000001
1701526027.985,19.609,19.609,-19.609,-0.0008,-0.0015,-0.0123,0.0,-0.045,-0.114
1701526028.025,19.609,19.609,-19.609,0.0012000000000000001,-0.0002,0.0175,0.0,-0.038,-0.11800000000000001
1701526028.065,19.609,19.609,-19.609,0.0017000000000000001,-0.0006000000000000001,-0.037000000000000005,-0.012,-0.038,-0.113
1701526028.105,19.609,19.609,-19.609,-0.00030000000000000003,-0.00030000000000000003,0.0292,-0.003,-0.044,-0.115
1701526028.145,19.609,19.609,-19.609,-0.0004,0.0017000000000000001,-0.015600000000000001,0.007,-0.043000000000000003,-0.124
1701526028.185,19.609,19.609,-19.609,0.0019,-0.001,-0.0114,-0.007,-0.044,-0.114
1701526028.225,19.609,19.609,-19.609,0.0,-0.0006000000000000001,0.0128,-0.007,-0.052000000000000005,-0.112
1701526028.265,19.609,19.609,-19.609,0.0004,-0.0017000000000000001,-0.0172,-0.005,-0.045,-0.112
1701526028.305,19.609,19.609,-19.609,-0.0001,0.0,0.0263,-0.001,-0.044,-0.116
1701526028.345,19.609,19.609,-19.609,-0.0011,0.0,-0.023700000000000002,0.007,-0.048,-0.113
1701526028.385,19.609,19.609,-19.609,0.0008,-0.0001,0.0213,-0.006,-0.046,-0.117
1701526028.425,19.609,19.609,-19.609,0.0014,-0.002,-0.0195,-0.016,-0.05,-0.10300000000000001
1701526028.465,19.609,19.609,-19.609,0.0,0.0,0.011000000000000001,0.003,-0.034,-0.113
1701526028.505,19.609,19.609,-19.609,-0.0002,-0.0002,0.0048000000000000004,0.009000000000000001,-0.04,-0.128
1701526028.545,19.609,19.609,-19.609,-0.0001,0.0009000000000000001,-0.0434,-0.016,-0.042,-0.11800000000000001
1701526028.585,19.609,19.609,-19.609,0.001,0.0005,0.041800000000000004,-0.032,-0.036000000000000004,-0.115
1701526028.625,19.609,19.609,-19.609,0.0011,-0.0034000000000000002,-0.041800000000000004,-0.001,-0.041,-0.125
1701526028.665,19.609,19.609,-19.609,0.0021000000000000003,0.0001,0.0454,0.002,-0.049,-0.115
1701526028.705,19.609,19.609,-19.609,-0.0001,-0.0017000000000000001,0.0142,-0.007,-0.04,-0.105
1701526028.745,19.609,19.609,-19.609,-0.002,-0.0007,0.0187,0.001,-0.033,-0.11900000000000001
1701526028.7849998,19.609,19.609,-19.609,-0.0014,0.00030000000000000003,-0.003,0.0,-0.036000000000000004,-0.11900000000000001
1701526028.825,19.609,19.609,-19.609,0.0015,-0.0001,-0.0134,-0.002,-0.042,-0.112
1701526028.865,19.609,19.609,-19.609,-0.0008,-0.002,0.0198,0.0,-0.044,-0.123
1701526028.905,19.609,19.609,-19.609,-0.0007,-0.0021000000000000003,-0.0067,0.005,-0.044,-0.116
1701526028.945,19.609,19.609,-19.609,-0.00030000000000000003,-0.0037,0.0238,-0.003,-0.044,-0.116
1701526028.985,19.609,19.609,-19.609,-0.004200000000000001,0.0018000000000000002,-0.0285,-0.011,-0.046,-0.114
1701526029.0249999,19.609,19.609,-19.609,-0.00030000000000000003,-0.001,0.0333,-0.005,-0.042,-0.116
1701526029.065,19.609,19.609,-19.609,-0.00030000000000000003,-0.0013000000000000002,-0.026600000000000002,-0.003,-0.044,-0.121
1701526029.105,19.609,19.609,-19.609,0.0017000000000000001,-0.00030000000000000003,0.0166,0.011,-0.046,-0.117
1701526029.145,19.609,19.609,-19.609,0.0016,0.0007,-0.0224,0.001,-0.058,-0.12
1701526029.185,19.609,19.609,-19.609,0.0005,-0.0013000000000000002,0.0031000000000000003,-0.012,-0.054,-0.11
1701526029.225,19.609,19.609,-19.609,0.0009000000000000001,-0.0028,0.0088,0.005,-0.042,-0.109
1701526029.2649999,19.609,19.609,-19.609,0.0015,-0.0021000000000000003,-0.0119,0.008,-0.048,-0.11800000000000001
1701526029.305,19.609,19.609,-19.609,0.001,0.0017000000000000001,0.0123,-0.012,-0.04,-0.11
1701526029.345,19.609,19.609,-19.609,0.00030000000000000003,-0.0031000000000000003,-0.0318,0.016,-0.042,-0.11800000000000001
1701526029.385,19.609,19.609,-19.609,-0.0019,-0.0018000000000000002,0.025500000000000002,0.004,-0.046,-0.121
1701526029.425,19.609,19.609,-19.609,0.001,-0.0004,-0.0117,-0.007,-0.059000000000000004,-0.113
1701526029.465,19.609,19.609,-19.609,-0.001,-0.0004,-0.027700000000000002,-0.005,-0.025,-0.113
1701526029.5049999,19.609,19.609,-19.609,-0.0008,-0.0001,0.041100000000000005,-0.001,-0.042,-0.124
1701526029.545,19.609,19.609,-19.609,0.0016,0.0001,-0.0391,-0.012,-0.036000000000000004,-0.115
1701526029.585,19.609,19.609,-19.609,-0.0004,-0.0029000000000000002,0.039900000000000005,-0.002,-0.051000000000000004,-0.113
1701526029.625,19.609,19.609,-19.609,-0.0009000000000000001,-0.0015,-0.0426,0.035,-0.047,-0.124
1701526029.665,19.609,19.609,-19.609,-0.0011,-0.0009000000000000001,0.038,-0.01,-0.04,-0.116
1701526029.705,19.609,19.609,-19.609,0.0025,0.0004,-0.0368,-0.012,-0.044,-0.12
1701526029.745,19.609,19.609,-19.609,0.0017000000000000001,0.0018000000000000002,-0.020300000000000002,-0.009000000000000001,-0.04,-0.117
1701526029.785,19.609,19.609,-19.609,0.0014,0.0007,0.0408,-0.008,-0.049,-0.115
1701526029.825,19.609,19.609,-19.609,0.0001,-0.0007,-0.0239,-0.008,-0.054,-0.113
1701526029.865,19.609,19.609,-19.609,0.0007,-0.0004,0.028800000000000003,-0.006,-0.052000000000000005,-0.116
1701526029.905,19.609,19.609,-19.609,-0.0013000000000000002,-0.0017000000000000001,-0.028,-0.021,-0.041,-0.101
1701526029.945,19.609,19.609,-19.609,-0.0005,-0.0009000000000000001,0.0315,-0.015,-0.035,-0.10300000000000001
1701526029.985,19.609,19.609,-19.609,0.0001,-0.0015,-0.0252,-0.001,-0.029,-0.121
1701526030.025,19.609,19.609,-19.609,-0.0019,-0.0011,0.020300000000000002,-0.014,-0.021,-0.114
1701526030.065,19.609,19.609,-19.609,-0.0014,0.0,-0.0228,-0.024,-0.028,-0.112
1701526030.105,19.609,19.609,-19.609,0.0016,-0.0011,0.019,-0.013000000000000001,-0.04,-0.122
1701526030.145,19.609,19.609,-19.609,0.0008,-0.0007,-0.0151,-0.007,-0.05,-0.115
1701526030.185,19.609,19.609,-19.609,0.0007,0.0001,0.0006000000000000001,-0.013000000000000001,-0.054,-0.108
1701526030.225,19.609,19.609,-19.609,-0.0007,-0.0023,-0.0037,-0.007,-0.032,-0.11800000000000001
1701526030.265,19.609,19.609,-19.609,0.0002,-0.0006000000000000001,0.005,-0.005,-0.037,-0.116
1701526030.305,19.609,19.609,-19.609,0.0004,0.0018000000000000002,-0.045200000000000004,-0.018000000000000002,-0.03,-0.11
1701526030.345,19.609,19.609,-19.609,-0.0006000000000000001,-0.0021000000000000003,0.0415,-0.018000000000000002,-0.029,-0.11
1701526030.385,19.609,19.609,-19.609,-0.0013000000000000002,0.0009000000000000001,-0.0371,-0.009000000000000001,-0.027,-0.11900000000000001
1701526030.425,19.609,19.609,-19.609,0.0014,0.002,0.035,-0.004,-0.035,-0.12
1701526030.465,19.609,19.609,-19.609,-0.0004,-0.0004,-0.0444,-0.01,-0.04,-0.111
1701526030.505,19.609,19.609,-19.609,-0.0014,0.0005,0.0324,-0.012,-0.039,-0.113
1701526030.545,19.609,19.609,-19.609,0.0014,0.0004,0.0318,-0.007,-0.044,-0.114
1701526030.585,19.609,19.609,-19.609,-0.0001,-0.0012000000000000001,-0.039400000000000004,-0.001,-0.052000000000000005,-0.114
1701526030.625,19.609,19.609,-19.609,0.00030000000000000003,-0.0012000000000000001,0.0449,-0.003,-0.052000000000000005,-0.112
1701526030.665,19.609,19.609,-19.609,0.0014,0.0007,-0.0309,-0.013000000000000001,-0.036000000000000004,-0.10400000000000001
1701526030.705,19.609,19.609,-19.609,0.00030000000000000003,-0.0004,0.033,0.0,-0.041,-0.10200000000000001
1701526030.745,19.609,19.609,-19.609,-0.0006000000000000001,-0.0018000000000000002,-0.0148,0.012,-0.035,-0.12
1701526030.7849998,19.609,19.609,-19.609,0.0029000000000000002,-0.0004,-0.0125,-0.018000000000000002,-0.052000000000000005,-0.111
1701526030.825,19.609,19.609,-19.609,0.0,0.0001,-0.0043,-0.029,-0.036000000000000004,-0.109
1701526030.865,19.609,19.609,-19.609,0.0021000000000000003,0.0006000000000000001,0.0149,-0.006,-0.033,-0.116
1701526030.905,19.609,19.609,-19.609,0.0029000000000000002,-0.002,0.015300000000000001,0.004,-0.037,-0.123
1701526030.945,19.609,19.609,-19.609,0.0015,-0.0004,-0.024800000000000003,-0.006,-0.048,-0.111
1701526030.985,19.609,19.609,-19.609,0.0004,-0.0011,0.0015,-0.007,-0.041,-0.111
1701526031.0249999,19.609,19.609,-19.609,0.0,-0.0005,0.0292,-0.003,-0.038,-0.114
1701526031.065,19.609,19.609,-19.609,0.0025,-0.0004,-0.0188,-0.012,-0.036000000000000004,-0.117
1701526031.105,19.609,19.609,-19.609,0.0021000000000000003,0.0018000000000000002,0.0034000000000000002,-0.004,-0.041,-0.11800000000000001
1701526031.145,19.609,19.609,-19.609,0.0001,-0.0018000000000000002,-0.008,-0.01,-0.04,-0.121
1701526031.185,19.609,19.609,-19.609,-0.0014,-0.0018000000000000002,-0.0025,-0.007,-0.044,-0.11900000000000001
1701526031.225,19.609,19.609,-19.609,-0.00030000000000000003,-0.00030000000000000003,-0.018600000000000002,-0.007,-0.04,-0.11900000000000001
1701526031.2649999,19.609,19.609,-19.609,0.0009000000000000001,-0.0001,0.036000000000000004,-0.005,-0.019,-0.115
1701526031.305,19.609,19.609,-19.609,-0.0001,-0.0015,-0.059300000000000005,0.005,-0.041,-0.112
1701526031.345,19.609,19.609,-19.609,0.005200000000000001,-0.0015,0.055200000000000006,0.004,-0.052000000000000005,-0.109
1701526031.385,19.609,19.609,-19.609,0.001,0.0004,-0.014400000000000001,-0.004,-0.055,-0.123
1701526031.425,19.609,19.609,-19.609,0.0029000000000000002,0.0001,0.011600000000000001,-0.045,-0.05,-0.098
1701526031.465,19.609,19.609,-19.609,-0.0005,0.00030000000000000003,-0.0175,-0.005,-0.038,-0.109
1701526031.5049999,19.609,19.609,-19.609,0.0001,0.00030000000000000003,-0.0222,0.01,-0.032,-0.122
1701526031.545,19.609,19.609,-19.609,0.0012000000000000001,0.00030000000000000003,0.020300000000000002,-0.003,-0.036000000000000004,-0.113
1701526031.585,19.609,19.609,-19.609,0.0001,0.00030000000000000003,-0.0335,-0.026000000000000002,-0.031,-0.111
1701526031.625,19.609,19.609,-19.609,0.0011,-0.0013000000000000002,0.0263,-0.005,-0.032,-0.123
1701526031.665,19.609,19.609,-19.609,0.0012000000000000001,0.0014,-0.018500000000000003,0.009000000000000001,-0.04,-0.12
1701526031.705,19.609,19.609,-19.609,-0.0036000000000000003,-0.0011,0.027200000000000002,-0.012,-0.046,-0.105
1701526031.745,19.609,19.609,-19.609,-0.002,-0.0006000000000000001,-0.024800000000000003,-0.007,-0.039,-0.11800000000000001
1701526031.785,19.609,19.609,-19.609,0.0014,0.0013000000000000002,-0.0026000000000000003,-0.003,-0.037,-0.112
1701526031.825,19.609,19.609,-19.609,0.0001,0.0001,0.0244,-0.01,-0.047,-0.11
1701526031.865,19.609,19.609,-19.609,0.0012000000000000001,0.00030000000000000003,-0.0173,0.002,-0.038,-0.117
1701526031.905,19.609,19.609,-19.609,-0.0005,-0.0013000000000000002,0.013800000000000002,-0.003,-0.035,-0.12
1701526031.945,19.609,19.609,-19.609,0.0016,-0.0014,-0.0162,-0.012,-0.04,-0.112
1701526031.985,19.609,19.609,-19.609,0.0013000000000000002,0.0,0.0166,-0.013000000000000001,-0.048,-0.114
1701526032.025,19.609,19.609,-19.609,-0.0007,-0.001,-0.030500000000000003,-0.003,-0.039,-0.114
1701526032.065,19.609,19.609,-19.609,0.0018000000000000002,-0.0004,0.0234,-0.002,-0.043000000000000003,-0.111
1701526032.105,19.609,19.609,-19.609,-0.0014,-0.002,-0.041100000000000005,0.001,-0.053,-0.115
1701526032.145,19.609,19.609,-19.609,0.0024000000000000002,-0.00030000000000000003,0.0407,0.001,-0.054,-0.121
1701526032.185,19.609,19.609,-19.609,0.0028,-0.0011,-0.0246,-0.016,-0.038,-0.10200000000000001
1701526032.225,19.609,19.609,-19.609,0.00030000000000000003,0.0,0.014100000000000001,-0.008,-0.034,-0.113
1701526032.265,19.609,19.609,-19.609,-0.0005,-0.0001,-0.0177,0.012,-0.033,-0.128
1701526032.305,19.609,19.609,-19.609,-0.001,0.0005,-0.0092,-0.014,-0.036000000000000004,-0.11800000000000001
1701526032.345,19.609,19.609,-19.609,-0.0001,0.0009000000000000001,-0.0175,-0.031,-0.033,-0.111
1701526032.385,19.609,19.609,-19.609,0.0011,0.0,-0.027,-0.003,-0.035,-0.121
1701526032.425,19.609,19.609,-19.609,-0.0028,0.0011,0.0019,0.0,-0.043000000000000003,-0.116
1701526032.465,19.609,19.609,-19.609,-0.0007,0.0009000000000000001,-0.038,-0.01,-0.049,-0.10400000000000001
1701526032.505,19.609,19.609,-19.609,-0.0007,0.0005,0.0419,0.001,-0.038,-0.116
1701526032.545,19.609,19.609,-19.609,0.0015,0.002,-0.0368,-0.001,-0.037,-0.11900000000000001
1701526032.585,19.609,19.609,-19.609,-0.0012000000000000001,-0.0009000000000000001,0.0316,-0.016,-0.04,-0.111
1701526032.625,19.609,19.609,-19.609,-0.0005,0.00030000000000000003,-0.014700000000000001,-0.005,-0.038,-0.113
1701526032.665,19.609,19.609,-19.609,-0.0001,-0.0002,0.0077,-0.007,-0.037,-0.123
1701526032.705,19.609,19.609,-19.609,-0.0012000000000000001,0.0015,-0.019100000000000002,-0.009000000000000001,-0.045,-0.113
1701526032.745,19.609,19.609,-19.609,0.0001,-0.00030000000000000003,0.0361,-0.004,-0.043000000000000003,-0.107
1701526032.7849998,19.609,19.609,-19.609,0.0007,-0.0002,-0.0112,0.0,-0.045,-0.11800000000000001
1701526032.825,19.609,19.609,-19.609,-0.0019,0.0015,-0.0236,-0.003,-0.039,-0.112
1701526032.865,19.609,19.609,-19.609,0.0,-0.0009000000000000001,0.035500000000000004,-0.004,-0.05,-0.106
1701526032.905,19.609,19.609,-19.609,-0.00030000000000000003,0.00030000000000000003,-0.0297,0.004,-0.05,-0.113
1701526032.945,19.609,19.609,-19.609,-0.0004,0.0011,0.0082,-0.009000000000000001,-0.049,-0.121
1701526032.985,19.609,19.609,-19.609,-0.0005,-0.0006000000000000001,-0.0016,-0.013000000000000001,-0.047,-0.1
1701526033.0249999,19.609,19.609,-19.609,-0.0014,-0.0013000000000000002,-0.0267,0.007,-0.028,-0.11900000000000001
1701526033.065,19.609,19.609,-19.609,0.00030000000000000003,-0.0018000000000000002,0.0159,0.005,-0.033,-0.126
1701526033.105,19.609,19.609,-19.609,0.0014,-0.00030000000000000003,-0.027700000000000002,-0.024,-0.045,-0.105
1701526033.145,19.609,19.609,-19.609,-0.0006000000000000001,-0.0015,0.038900000000000004,-0.006,-0.041,-0.117
1701526033.185,19.609,19.609,-19.609,-0.0005,-0.0015,-0.038,0.003,-0.039,-0.126
1701526033.225,19.609,19.609,-19.609,0.0,0.0012000000000000001,0.0449,-0.002,-0.056,-0.109
1701526033.2649999,19.609,19.609,-19.609,0.0023,-0.00030000000000000003,-0.031100000000000003,-0.003,-0.055,-0.112
1701526033.305,19.609,19.609,-19.609,-0.0006000000000000001,0.0006000000000000001,0.019200000000000002,0.002,-0.036000000000000004,-0.117
1701526033.345,19.609,19.609,-19.609,0.00030000000000000003,0.0028,-0.0211,-0.008,-0.039,-0.112
1701526033.385,19.609,19.609,-19.609,-0.0018000000000000002,0.001,0.0145,-0.002,-0.05,-0.113
1701526033.425,19.609,19.609,-19.609,-0.001,-0.00030000000000000003,-0.0004,0.001,-0.048,-0.12
1701526033.465,19.609,19.609,-19.609,0.0041,-0.001,0.0078000000000000005,-0.002,-0.041,-0.12
1701526033.5049999,19.609,19.609,-19.609,0.0,-0.0025,-0.0253,0.0,-0.051000000000000004,-0.111
1701526033.545,19.609,19.609,-19.609,-0.0017000000000000001,-0.0007,0.013000000000000001,0.016,-0.054,-0.117
1701526033.585,19.609,19.609,-19.609,0.00030000000000000003,-0.0026000000000000003,-0.035500000000000004,0.0,-0.053,-0.115
1701526033.625,19.609,19.609,-19.609,0.0007,-0.00030000000000000003,0.0413,0.0,-0.044,-0.11800000000000001
1701526033.665,19.609,19.609,-19.609,0.0015,0.0011,-0.0472,0.003,-0.053,-0.117
1701526033.705,19.609,19.609,-19.609,-0.0015,-0.0004,0.044000000000000004,-0.008,-0.051000000000000004,-0.11900000000000001
1701526033.745,19.609,19.609,-19.609,0.0004,-0.0004,-0.0269,-0.011,-0.049,-0.108
1701526033.785,19.609,19.609,-19.609,-0.0006000000000000001,0.0,0.0166,-0.002,-0.031,-0.115
1701526033.825,19.609,19.609,-19.609,0.0007,0.0004,-0.0393,-0.004,-0.036000000000000004,-0.116
1701526033.865,19.609,19.609,-19.609,-0.0002,-0.001,0.0448,-0.02,-0.035,-0.109
1701526033.905,19.609,19.609,-19.609,0.0001,-0.00030000000000000003,-0.0137,-0.004,-0.029,-0.11900000000000001
1701526033.945,19.609,19.609,-19.609,0.0016,-0.0032,-0.0307,-0.006,-0.035,-0.132
1701526033.985,19.609,19.609,-19.609,0.0011,-0.0001,0.0371,-0.013000000000000001,-0.045,-0.109
1701526034.025,19.609,19.609,-19.609,0.0017000000000000001,-0.0004,-0.0252,-0.015,-0.036000000000000004,-0.11900000000000001
1701526034.065,19.609,19.609,-19.609,-0.001,-0.0007,0.0054,-0.007,-0.034,-0.124
1701526034.105,19.609,19.609,-19.609,-0.0022,-0.0024000000000000002,0.0035,-0.013000000000000001,-0.041,-0.11800000000000001
1701526034.145,19.609,19.609,-19.609,0.0004,-0.0007,-0.017400000000000002,-0.01,-0.05,-0.121
1701526034.185,19.609,19.609,-19.609,-0.0012000000000000001,-0.0023,0.0213,0.0,-0.044,-0.12
1701526034.225,19.609,19.609,-19.609,-0.0006000000000000001,-0.0004,-0.0313,-0.009000000000000001,-0.041,-0.112
1701526034.265,19.609,19.609,-19.609,-0.0006000000000000001,0.002,0.026600000000000002,-0.008,-0.045,-0.11800000000000001
1701526034.305,19.609,19.609,-19.609,0.0017000000000000001,0.0025,0.005200000000000001,-0.005,-0.048,-0.11900000000000001
1701526034.345,19.609,19.609,-19.609,0.0,0.0018000000000000002,0.0054,-0.012,-0.04,-0.111
1701526034.385,19.609,19.609,-19.609,0.0014,-0.0004,-0.0035,-0.008,-0.047,-0.11800000000000001
1701526034.425,19.609,19.609,-19.609,0.001,0.0014,0.0216,0.0,-0.05,-0.113
1701526034.465,19.609,19.609,-19.609,-0.0005,-0.001,-0.027600000000000003,0.001,-0.044,-0.116
1701526034.505,19.609,19.609,-19.609,0.0017000000000000001,0.0,0.0285,-0.018000000000000002,-0.04,-0.10200000000000001
1701526034.545,19.609,19.609,-19.609,0.0009000000000000001,0.0,-0.029300000000000003,-0.004,-0.025,-0.10300000000000001
1701526034.585,19.609,19.609,-19.609,0.0006000000000000001,-0.0009000000000000001,0.0261,0.009000000000000001,-0.027,-0.129
1701526034.625,19.609,19.609,-19.609,0.0005,-0.0001,-0.0325,-0.02,-0.033,-0.11
1701526034.665,19.609,19.609,-19.609,-0.0045000000000000005,-0.0027,0.025,-0.026000000000000002,-0.035,-0.111
1701526034.705,19.609,19.609,-19.609,0.00030000000000000003,0.0008,-0.0281,-0.012,-0.041,-0.125
1701526034.745,19.609,19.609,-19.609,0.0012000000000000001,-0.001,0.014400000000000001,-0.004,-0.042,-0.114
1701526034.7849998,19.609,19.609,-19.609,-0.0005,-0.0006000000000000001,-0.005,-0.011,-0.044,-0.106
1701526034.825,19.609,19.609,-19.609,0.0017000000000000001,0.001,-0.011300000000000001,0.002,-0.036000000000000004,-0.115
1701526034.865,19.609,19.609,-19.609,-0.00030000000000000003,-0.003,0.0279,-0.009000000000000001,-0.063,-0.12
1701526034.905,19.609,19.609,-19.609,0.0008,0.0004,-0.0402,-0.018000000000000002,-0.027,-0.105
1701526034.945,19.609,19.609,-19.609,0.002,-0.0019,0.0333,-0.001,-0.038,-0.11900000000000001
1701526034.985,19.609,19.609,-19.609,0.001,-0.0006000000000000001,-0.0167,-0.005,-0.037,-0.115
1701526035.0249999,19.609,19.609,-19.609,0.0016,0.0007,0.0106,-0.005,-0.047,-0.115
1701526035.065,19.609,19.609,-19.609,-0.00030000000000000003,-0.0015,-0.0151,-0.01,-0.046,-0.116
1701526035.105,19.609,19.609,-19.609,0.0004,-0.0012000000000000001,-0.0019,-0.001,-0.047,-0.11
1701526035.145,19.609,19.609,-19.609,0.0,-0.00030000000000000003,0.008700000000000001,0.001,-0.047,-0.113
1701526035.185,19.609,19.609,-19.609,0.0008,-0.0025,-0.0043,-0.004,-0.052000000000000005,-0.111
1701526035.225,19.609,19.609,-19.609,-0.0011,-0.0014,0.0008,-0.005,-0.054,-0.121
1701526035.2649999,19.609,19.609,-19.609,-0.0012000000000000001,0.0004,0.0126,-0.013000000000000001,-0.04,-0.108
1701526035.305,19.609,19.609,-19.609,0.0014,-0.0011,-0.023,-0.003,-0.041,-0.108
1701526035.345,19.609,19.609,-19.609,-0.0004,-0.001,0.0363,0.006,-0.038,-0.11800000000000001
1701526035.385,19.609,19.609,-19.609,-0.0011,-0.0001,-0.036000000000000004,-0.011,-0.042,-0.116
1701526035.425,19.609,19.609,-19.609,0.0037,-0.0026000000000000003,0.0179,-0.024,-0.036000000000000004,-0.10300000000000001
1701526035.465,19.609,19.609,-19.609,0.0002,0.0007,-0.0258,-0.004,-0.036000000000000004,-0.11900000000000001
1701526035.5049999,19.609,19.609,-19.609,0.0018000000000000002,0.00030000000000000003,0.0137,0.005,-0.041,-0.123
1701526035.545,19.609,19.609,-19.609,-0.0001,-0.0005,0.0175,-0.01,-0.047,-0.106
1701526035.585,19.609,19.609,-19.609,0.0015,-0.0023,-0.0296,-0.005,-0.046,-0.108
1701526035.625,19.609,19.609,-19.609,-0.0025,-0.0008,-0.00030000000000000003,0.002,-0.035,-0.113
1701526035.665,19.609,19.609,-19.609,-0.0001,-0.002,0.006500000000000001,-0.012,-0.039,-0.105
1701526035.705,19.609,19.609,-19.609,0.0007,0.0006000000000000001,-0.0017000000000000001,-0.005,-0.038,-0.115
1701526035.745,19.609,19.609,-19.609,0.0017000000000000001,0.0004,0.0194,-0.002,-0.036000000000000004,-0.116
1701526035.785,19.609,19.609,-19.609,0.0011,-0.0019,-0.019100000000000002,-0.01,-0.034,-0.107
1701526035.825,19.609,19.609,-19.609,0.00030000000000000003,-0.0013000000000000002,0.013600000000000001,-0.01,-0.041,-0.116
1701526035.865,19.609,19.609,-19.609,-0.0014,-0.00030000000000000003,-0.024300000000000002,-0.007,-0.045,-0.114
1701526035.905,19.609,19.609,-19.609,0.0017000000000000001,0.0,0.0328,-0.006,-0.045,-0.112
1701526035.945,19.609,19.609,-19.609,0.0007,-0.001,-0.0543,-0.005,-0.048,-0.116
1701526035.985,19.609,19.609,-19.609,-0.0017000000000000001,-0.0005,0.050800000000000005,0.0,-0.051000000000000004,-0.11800000000000001
1701526036.025,19.609,19.609,-19.609,-0.0021000000000000003,-0.0022,0.0592,-0.02,-0.041,-0.112
1701526036.065,19.609,19.609,-19.609,0.0006000000000000001,-0.0012000000000000001,-0.0095,-0.016,-0.046,-0.108
1701526036.105,19.609,19.609,-19.609,0.0009000000000000001,-0.0032,0.0119,0.011,-0.04,-0.131
1701526036.145,19.609,19.609,-19.609,0.00030000000000000003,-0.0008,-0.0218,-0.005,-0.045,-0.11800000000000001
1701526036.185,19.609,19.609,-19.609,0.0021000000000000003,-0.0006000000000000001,0.0347,-0.027,-0.037,-0.105
1701526036.225,19.609,19.609,-19.609,0.0002,-0.00030000000000000003,-0.0258,-0.016,-0.038,-0.12
1701526036.265,19.609,19.609,-19.609,-0.00030000000000000003,-0.0014,0.0205,0.003,-0.041,-0.122
1701526036.305,19.609,19.609,-19.609,0.00030000000000000003,0.0001,-0.020300000000000002,-0.007,-0.051000000000000004,-0.117
1701526036.345,19.609,19.609,-19.609,0.00030000000000000003,0.0023,0.0151,-0.009000000000000001,-0.04,-0.115
1701526036.385,19.609,19.609,-19.609,-0.0006000000000000001,-0.0013000000000000002,-0.0054,-0.002,-0.036000000000000004,-0.12
1701526036.425,19.609,19.609,-19.609,0.0014,0.0015,0.006500000000000001,-0.01,-0.041,-0.10200000000000001
1701526036.465,19.609,19.609,-19.609,-0.0005,-0.001,0.0108,-0.01,-0.039,-0.116
1701526036.505,19.609,19.609,-19.609,-0.0001,-0.001,-0.0118,-0.002,-0.041,-0.11800000000000001
1701526036.545,19.609,19.609,-19.609,-0.0013000000000000002,-0.0014,0.0,-0.007,-0.041,-0.11800000000000001
1701526036.585,19.609,19.609,-19.609,-0.0021000000000000003,0.0008,-0.0055000000000000005,-0.005,-0.05,-0.116
1701526036.625,19.609,19.609,-19.609,-0.0002,-0.001,0.006500000000000001,0.006,-0.047,-0.11800000000000001
1701526036.665,19.609,19.609,-19.609,0.001,-0.0035,-0.0028,-0.003,-0.044,-0.115
1701526036.705,19.609,19.609,-19.609,-0.0021000000000000003,0.0,-0.0531,0.0,-0.048,-0.114
1701526036.745,19.609,19.609,-19.609,-0.0005,0.0015,0.05,-0.005,-0.048,-0.116
1701526036.7849998,19.609,19.609,-19.609,0.0009000000000000001,-0.0004,-0.040600000000000004,-0.006,-0.055,-0.117
1701526036.825,19.609,19.609,-19.609,0.004200000000000001,-0.0006000000000000001,0.0368,-0.016,-0.052000000000000005,-0.108
1701526036.865,19.609,19.609,-19.609,0.0016,-0.0014,-0.0459,0.011,-0.036000000000000004,-0.117
1701526036.905,19.609,19.609,-19.609,0.001,0.0005,0.0487,0.009000000000000001,-0.041,-0.12
1701526036.945,19.609,19.609,-19.609,-0.0033,-0.0011,-0.0386,-0.024,-0.039,-0.111
1701526036.985,19.609,19.609,-19.609,-0.0001,-0.0011,0.018600000000000002,-0.01,-0.036000000000000004,-0.109
1701526037.0249999,19.609,19.609,-19.609,-0.0002,-0.0004,0.0049,0.005,-0.04,-0.124
1701526037.065,19.609,19.609,-19.609,0.0,-0.0008,-0.0155,0.0,-0.053,-0.115
1701526037.105,19.609,19.609,-19.609,0.0004,0.0021000000000000003,0.0128,-0.002,-0.047,-0.111
1701526037.145,19.609,19.609,-19.609,0.002,-0.0021000000000000003,-0.0419,0.007,-0.039,-0.11800000000000001
1701526037.185,19.609,19.609,-19.609,0.0017000000000000001,-0.0012000000000000001,0.0538,0.0,-0.044,-0.115
1701526037.225,19.609,19.609,-19.609,0.0033,-0.003,-0.0396,-0.004,-0.046,-0.10400000000000001
1701526037.2649999,19.609,19.609,-19.609,-0.0006000000000000001,-0.0007,0.038400000000000004,0.001,-0.045,-0.117
1701526037.305,19.609,19.609,-19.609,-0.0005,0.0002,-0.0346,-0.003,-0.045,-0.121
1701526037.345,19.609,19.609,-19.609,0.0015,0.0007,0.0281,-0.001,-0.044,-0.115
1701526037.385,19.609,19.609,-19.609,-0.001,-0.0006000000000000001,-0.024900000000000002,-0.003,-0.051000000000000004,-0.112
1701526037.425,19.609,19.609,-19.609,0.00030000000000000003,-0.0008,0.0213,0.0,-0.045,-0.112
1701526037.465,19.609,19.609,-19.609,-0.0002,-0.0012000000000000001,-0.013900000000000001,0.003,-0.053,-0.11
1701526037.5049999,19.609,19.609,-19.609,0.0025,0.0009000000000000001,0.016800000000000002,0.001,-0.054,-0.116
1701526037.545,19.609,19.609,-19.609,0.0019,0.0017000000000000001,-0.019200000000000002,-0.002,-0.056,-0.112
1701526037.585,19.609,19.609,-19.609,-0.00030000000000000003,0.0001,-0.0009000000000000001,-0.006,-0.049,-0.101
1701526037.625,19.609,19.609,-19.609,0.0004,-0.001,-0.0154,0.005,-0.035,-0.112
1701526037.665,19.609,19.609,-19.609,-0.0021000000000000003,-0.0009000000000000001,0.029900000000000003,0.008,-0.033,-0.122
1701526037.705,19.609,19.609,-19.609,0.0005,-0.0004,-0.0264,-0.009000000000000001,-0.047,-0.111
1701526037.745,19.609,19.609,-19.609,0.0009000000000000001,-0.0013000000000000002,0.0024000000000000002,-0.007,-0.039,-0.114
1701526037.785,19.609,19.609,-19.609,0.0,-0.0016,-0.020200000000000003,0.006,-0.047,-0.127
1701526037.825,19.609,19.609,-19.609,-0.0004,-0.0019,-0.0008,-0.009000000000000001,-0.058,-0.11
1701526037.865,19.609,19.609,-19.609,0.0,0.00030000000000000003,-0.012,-0.006,-0.049,-0.105
1701526037.905,19.609,19.609,-19.609,-0.0015,-0.0026000000000000003,0.0281,0.001,-0.042,-0.116
1701526037.945,19.609,19.609,-19.609,-0.00030000000000000003,-0.0018000000000000002,-0.026600000000000002,-0.007,-0.04,-0.116
1701526037.985,19.609,19.609,-19.609,-0.00030000000000000003,-0.001,0.0031000000000000003,-0.012,-0.039,-0.115
1701526038.025,19.609,19.609,-19.609,0.004,-0.0004,-0.0018000000000000002,-0.007,-0.035,-0.12
1701526038.065,19.609,19.609,-19.609,0.0004,-0.0037,-0.0298,-0.007,-0.046,-0.11800000000000001
1701526038.105,19.609,19.609,-19.609,0.001,-0.0017000000000000001,0.04,-0.006,-0.047,-0.114
1701526038.145,19.609,19.609,-19.609,0.0,0.0021000000000000003,-0.0056,-0.007,-0.046,-0.117
1701526038.185,19.609,19.609,-19.609,0.00030000000000000003,-0.002,-0.0324,-0.007,-0.054,-0.12
1701526038.225,19.609,19.609,-19.609,0.0,-0.0012000000000000001,0.0349,-0.007,-0.049,-0.108
1701526038.265,19.609,19.609,-19.609,0.0002,0.0,-0.0238,-0.004,-0.052000000000000005,-0.112
1701526038.305,19.609,19.609,-19.609,0.0023,0.0007,0.013900000000000001,-0.009000000000000001,-0.043000000000000003,-0.123
1701526038.345,19.609,19.609,-19.609,-0.0024000000000000002,-0.0008,-0.0212,-0.015,-0.037,-0.10200000000000001
1701526038.385,19.609,19.609,-19.609,-0.0004,-0.00030000000000000003,0.0261,-0.027,-0.03,-0.113
1701526038.425,19.609,19.609,-19.609,-0.0001,-0.0012000000000000001,-0.0349,0.015,-0.04,-0.124
1701526038.465,19.609,19.609,-19.609,-0.0015,0.0,0.0078000000000000005,-0.025,-0.034,-0.112
1701526038.505,19.609,19.609,-19.609,-0.0006000000000000001,0.001,0.026500000000000003,-0.025,-0.038,-0.10300000000000001
1701526038.545,19.609,19.609,-19.609,0.0017000000000000001,-0.0011,-0.039,0.001,-0.029,-0.129
1701526038.585,19.609,19.609,-19.609,0.00030000000000000003,0.0007,0.035,-0.005,-0.048,-0.113
1701526038.625,19.609,19.609,-19.609,0.0001,-0.0019,-0.027100000000000003,-0.013000000000000001,-0.037,-0.111
1701526038.665,19.609,19.609,-19.609,0.0,-0.0014,0.020800000000000003,-0.004,-0.031,-0.117
1701526038.705,19.609,19.609,-19.609,-0.0028,-0.0008,-0.0291,-0.013000000000000001,-0.033,-0.109
1701526038.745,19.609,19.609,-19.609,0.0013000000000000002,-0.0019,0.034300000000000004,-0.021,-0.039,-0.109
1701526038.7849998,19.609,19.609,-19.609,0.00030000000000000003,-0.0012000000000000001,-0.033100000000000004,-0.008,-0.032,-0.116
1701526038.825,19.609,19.609,-19.609,-0.0001,-0.0013000000000000002,0.0324,-0.009000000000000001,-0.036000000000000004,-0.113
1701526038.865,19.609,19.609,-19.609,0.0,-0.0006000000000000001,-0.039,-0.014,-0.043000000000000003,-0.114
1701526038.905,19.609,19.609,-19.609,-0.0018000000000000002,-0.0019,0.0352,-0.005,-0.047,-0.117
1701526038.945,19.609,19.609,-19.609,0.0001,-0.0014,-0.0369,-0.003,-0.045,-0.113
1701526038.985,19.609,19.609,-19.609,-0.0006000000000000001,0.0,0.0379,-0.007,-0.046,-0.11
1701526039.0249999,19.609,19.609,-19.609,0.0001,-0.0016,-0.020900000000000002,-0.007,-0.048,-0.114
1701526039.065,19.609,19.609,-19.609,0.0002,-0.0039000000000000003,0.0102,-0.014,-0.05,-0.11800000000000001
1701526039.105,19.609,19.609,-19.609,-0.0006000000000000001,-0.0012000000000000001,-0.0162,-0.019,-0.049,-0.10400000000000001
1701526039.145,19.609,19.609,-19.609,0.0004,0.0006000000000000001,0.020900000000000002,0.012,-0.042,-0.114
1701526039.185,19.609,19.609,-19.609,0.0006000000000000001,-0.0018000000000000002,-0.015700000000000002,0.008,-0.04,-0.128
1701526039.225,19.609,19.609,-19.609,0.0033,0.0008,0.0239,-0.024,-0.036000000000000004,-0.111
1701526039.2649999,19.609,19.609,-19.609,-0.00030000000000000003,0.0017000000000000001,-0.028900000000000002,-0.027,-0.037,-0.114
1701526039.305,19.609,19.609,-19.609,0.0006000000000000001,0.0004,0.022000000000000002,-0.002,-0.044,-0.128
1701526039.345,19.609,19.609,-19.609,-0.0015,-0.0001,-0.0361,0.0,-0.048,-0.11800000000000001
1701526039.385,19.609,19.609,-19.609,0.0015,-0.0006000000000000001,0.009300000000000001,-0.009000000000000001,-0.052000000000000005,-0.109
1701526039.425,19.609,19.609,-19.609,0.0,-0.0004,0.0284,0.0,-0.041,-0.11900000000000001
1701526039.465,19.609,19.609,-19.609,0.0024000000000000002,0.0,-0.0155,-0.004,-0.04,-0.112
1701526039.5049999,19.609,19.609,-19.609,0.0011,0.0017000000000000001,0.031900000000000005,-0.012,-0.042,-0.106
1701526039.545,19.609,19.609,-19.609,0.0006000000000000001,0.0027,-0.02,-0.001,-0.044,-0.11900000000000001
1701526039.585,19.609,19.609,-19.609,0.0021000000000000003,-0.0007,-0.011300000000000001,-0.001,-0.044,-0.11800000000000001
1701526039.625,19.609,19.609,-19.609,0.00030000000000000003,-0.0017000000000000001,0.0224,-0.006,-0.045,-0.107
1701526039.665,19.609,19.609,-19.609,0.0007,0.0002,0.0028,0.0,-0.049,-0.113
1701526039.705,19.609,19.609,-19.609,0.0013000000000000002,0.0,-0.009600000000000001,-0.003,-0.045,-0.11900000000000001
1701526039.745,19.609,19.609,-19.609,-0.0006000000000000001,-0.0022,-0.0046,-0.007,-0.05,-0.111
1701526039.785,19.609,19.609,-19.609,-0.00030000000000000003,-0.0022,0.024,-0.004,-0.047,-0.11800000000000001
1701526039.825,19.609,19.609,-19.609,0.0004,-0.0032,-0.039900000000000005,-0.017,-0.048,-0.11900000000000001
1701526039.865,19.609,19.609,-19.609,-0.0018000000000000002,0.0009000000000000001,0.0284,-0.011,-0.052000000000000005,-0.10300000000000001
1701526039.905,19.609,19.609,-19.609,0.0013000000000000002,-0.0023,-0.0262,0.006,-0.039,-0.112
1701526039.945,19.609,19.609,-19.609,0.0012000000000000001,-0.0012000000000000001,0.0362,0.0,-0.043000000000000003,-0.121
1701526039.985,19.609,19.609,-19.609,-0.0011,0.0009000000000000001,-0.0397,-0.027,-0.036000000000000004,-0.111
1701526040.025,19.609,19.609,-19.609,0.001,-0.0014,0.030500000000000003,-0.017,-0.032,-0.122
1701526040.065,19.609,19.609,-19.609,0.0001,0.0001,-0.037200000000000004,0.003,-0.045,-0.124
1701526040.105,19.609,19.609,-19.609,-0.00030000000000000003,0.00030000000000000003,0.030500000000000003,-0.01,-0.042,-0.106
1701526040.145,19.609,19.609,-19.609,-0.0014,0.0009000000000000001,-0.0432,-0.008,-0.051000000000000004,-0.10300000000000001
1701526040.185,19.609,19.609,-19.609,-0.0009000000000000001,-0.0014,0.0354,0.001,-0.034,-0.123
1701526040.225,19.609,19.609,-19.609,0.0,0.0006000000000000001,-0.035,-0.01,-0.04,-0.107
1701526040.265,19.609,19.609,-19.609,-0.0007,0.0018000000000000002,0.009000000000000001,-0.008,-0.038,-0.109
1701526040.305,19.609,19.609,-19.609,0.0,-0.0017000000000000001,0.0158,0.005,-0.036000000000000004,-0.122
1701526040.345,19.609,19.609,-19.609,-0.0026000000000000003,-0.0029000000000000002,-0.0358,-0.005,-0.042,-0.131
1701526040.385,19.609,19.609,-19.609,0.0007,-0.0006000000000000001,0.0413,-0.006,-0.038,-0.115
1701526040.425,19.609,19.609,-19.609,0.0009000000000000001,-0.0019,-0.049300000000000004,-0.003,-0.051000000000000004,-0.123
1701526040.465,19.609,19.609,-19.609,0.0021000000000000003,0.0005,0.0415,0.001,-0.044,-0.109
1701526040.505,19.609,19.609,-19.609,0.0067,-0.0007,-0.0307,0.001,-0.053,-0.111
1701526040.545,19.609,19.609,-19.609,0.0009000000000000001,-0.0007,0.032,0.003,-0.052000000000000005,-0.12
1701526040.585,19.609,19.609,-19.609,-0.0011,-0.001,-0.0434,-0.025,-0.043000000000000003,-0.107
1701526040.625,19.609,19.609,-19.609,-0.0023,0.0006000000000000001,0.051300000000000005,0.008,-0.043000000000000003,-0.10400000000000001
1701526040.665,19.609,19.609,-19.609,-0.0005,-0.0006000000000000001,-0.0443,0.02,-0.034,-0.125
1701526040.705,19.609,19.609,-19.609,0.0009000000000000001,-0.00030000000000000003,0.0443,-0.007,-0.039,-0.11800000000000001
1701526040.745,19.609,19.609,-19.609,-0.0012000000000000001,-0.0014,-0.041,-0.017,-0.024,-0.107
1701526040.7849998,19.609,19.609,-19.609,0.0012000000000000001,0.00030000000000000003,0.027700000000000002,0.0,-0.04,-0.12
1701526040.825,19.609,19.609,-19.609,0.0006000000000000001,0.0,-0.0263,0.01,-0.037,-0.122
1701526040.865,19.609,19.609,-19.609,0.0006000000000000001,-0.0013000000000000002,0.0158,-0.004,-0.053,-0.099
1701526040.905,19.609,19.609,-19.609,0.0005,0.0001,-0.0325,0.006,-0.05,-0.116
1701526040.945,19.609,19.609,-19.609,0.0004,-0.0008,0.035,0.0,-0.042,-0.115
1701526040.985,19.609,19.609,-19.609,-0.0002,0.0011,-0.033,-0.01,-0.045,-0.107
1701526041.0249999,19.609,19.609,-19.609,0.0036000000000000003,0.0007,0.014100000000000001,-0.004,-0.042,-0.112
1701526041.065,19.609,19.609,-19.609,0.0009000000000000001,-0.0015,0.0024000000000000002,0.004,-0.04,-0.124
1701526041.105,19.609,19.609,-19.609,0.0015,0.0009000000000000001,0.0031000000000000003,-0.002,-0.046,-0.11800000000000001
1701526041.145,19.609,19.609,-19.609,-0.0017000000000000001,-0.0002,-0.031200000000000002,-0.002,-0.052000000000000005,-0.113
1701526041.185,19.609,19.609,-19.609,-0.0025,0.0,0.0386,-0.004,-0.051000000000000004,-0.122
1701526041.225,19.609,19.609,-19.609,-0.0006000000000000001,-0.001,-0.0349,0.0,-0.045,-0.116
1701526041.2649999,19.609,19.609,-19.609,0.0001,0.0001,0.0151,-0.005,-0.056,-0.112
1701526041.305,19.609,19.609,-19.609,-0.0006000000000000001,-0.0006000000000000001,0.0105,-0.004,-0.057,-0.11800000000000001
1701526041.345,19.609,19.609,-19.609,0.0023,-0.0015,-0.0046,-0.009000000000000001,-0.044,-0.111
1701526041.385,19.609,19.609,-19.609,-0.0008,0.0013000000000000002,0.0068000000000000005,-0.001,-0.04,-0.109
1701526041.425,19.609,19.609,-19.609,0.0004,-0.0015,-0.0048000000000000004,-0.005,-0.039,-0.114
1701526041.465,19.609,19.609,-19.609,0.0006000000000000001,-0.0015,-0.016900000000000002,-0.02,-0.033,-0.109
1701526041.5049999,19.609,19.609,-19.609,0.0,-0.0001,0.0335,-0.009000000000000001,-0.029,-0.116
1701526041.545,19.609,19.609,-19.609,0.0019,-0.0018000000000000002,-0.044000000000000004,-0.002,-0.036000000000000004,-0.127
1701526041.585,19.609,19.609,-19.609,0.0009000000000000001,0.0007,0.033100000000000004,-0.011,-0.051000000000000004,-0.11
1701526041.625,19.609,19.609,-19.609,0.0001,0.0013000000000000002,-0.028300000000000002,-0.015,-0.046,-0.113
1701526041.665,19.609,19.609,-19.609,0.0001,-0.0001,0.0092,0.002,-0.033,-0.12
1701526041.705,19.609,19.609,-19.609,0.0009000000000000001,0.00030000000000000003,0.0118,-0.011,-0.039,-0.114
1701526041.745,19.609,19.609,-19.609,-0.0002,-0.0021000000000000003,-0.0173,-0.011,-0.035,-0.116
1701526041.785,19.609,19.609,-19.609,0.0018000000000000002,-0.0002,0.0219,-0.003,-0.035,-0.11900000000000001
1701526041.825,19.609,19.609,-19.609,0.0016,0.0,-0.0219,-0.006,-0.038,-0.114
1701526041.865,19.609,19.609,-19.609,-0.0007,-0.0031000000000000003,0.0176,-0.012,-0.039,-0.11800000000000001
1701526041.905,19.609,19.609,-19.609,0.0017000000000000001,-0.0014,-0.036000000000000004,-0.002,-0.047,-0.12
1701526041.945,19.609,19.609,-19.609,-0.0001,-0.0025,0.0376,-0.005,-0.049,-0.114
1701526041.985,19.609,19.609,-19.609,-0.0009000000000000001,-0.0012000000000000001,-0.0405,-0.011,-0.045,-0.114
1701526042.025,19.609,19.609,-19.609,0.0006000000000000001,0.00030000000000000003,0.039900000000000005,-0.003,-0.051000000000000004,-0.12
1701526042.065,19.609,19.609,-19.609,0.0021000000000000003,0.0019,-0.021,0.004,-0.037,-0.114
1701526042.105,19.609,19.609,-19.609,0.0005,0.0018000000000000002,0.0146,-0.026000000000000002,-0.041,-0.10400000000000001
1701526042.145,19.609,19.609,-19.609,0.0023,-0.002,-0.035,0.006,-0.041,-0.11900000000000001
1701526042.185,19.609,19.609,-19.609,0.0008,0.0017000000000000001,0.039400000000000004,0.001,-0.043000000000000003,-0.122
1701526042.225,19.609,19.609,-19.609,0.0012000000000000001,-0.0014,-0.040400000000000005,-0.031,-0.038,-0.11
1701526042.265,19.609,19.609,-19.609,-0.0026000000000000003,0.0006000000000000001,0.0397,-0.011,-0.036000000000000004,-0.114
1701526042.305,19.609,19.609,-19.609,0.0006000000000000001,-0.0009000000000000001,-0.0325,-0.001,-0.042,-0.11800000000000001
1701526042.345,19.609,19.609,-19.609,-0.0019,-0.003,0.0233,-0.011,-0.052000000000000005,-0.10400000000000001
1701526042.385,19.609,19.609,-19.609,-0.0001,-0.0009000000000000001,-0.0126,-0.003,-0.031,-0.115
1701526042.425,19.609,19.609,-19.609,0.0004,0.00030000000000000003,0.0178,-0.001,-0.039,-0.11900000000000001
1701526042.465,19.609,19.609,-19.609,0.0017000000000000001,-0.0015,-0.0227,-0.017,-0.037,-0.11
1701526042.505,19.609,19.609,-19.609,0.0018000000000000002,-0.001,0.0184,-0.008,-0.039,-0.111
1701526042.545,19.609,19.609,-19.609,0.0002,-0.0006000000000000001,-0.0175,0.02,-0.036000000000000004,-0.11800000000000001
1701526042.585,19.609,19.609,-19.609,0.0005,-0.0005,0.023,-0.012,-0.046,-0.111
1701526042.625,19.609,19.609,-19.609,-0.0015,-0.0014,-0.0396,-0.011,-0.042,-0.116
1701526042.665,19.609,19.609,-19.609,0.0025,0.00030000000000000003,0.0397,-0.001,-0.042,-0.114
1701526042.705,19.609,19.609,-19.609,-0.0005,-0.0015,-0.0239,-0.003,-0.047,-0.114
1701526042.745,19.609,19.609,-19.609,0.0018000000000000002,-0.002,0.0239,-0.002,-0.049,-0.115
1701526042.7849998,19.609,19.609,-19.609,-0.0012000000000000001,0.0015,-0.0183,-0.011,-0.051000000000000004,-0.115
1701526042.825,19.609,19.609,-19.609,0.0001,-0.0015,0.0064,-0.015,-0.048,-0.101
1701526042.865,19.609,19.609,-19.609,-0.001,-0.0022,-0.0198,0.005,-0.042,-0.112
1701526042.905,19.609,19.609,-19.609,0.0006000000000000001,0.0001,0.034300000000000004,0.01,-0.039,-0.11800000000000001
1701526042.945,19.609,19.609,-19.609,0.0006000000000000001,-0.0019,-0.0349,-0.019,-0.042,-0.109
1701526042.985,19.609,19.609,-19.609,-0.0012000000000000001,-0.0019,0.0349,-0.019,-0.035,-0.114
1701526043.0249999,19.609,19.609,-19.609,-0.0006000000000000001,0.0001,-0.028200000000000003,-0.004,-0.036000000000000004,-0.11800000000000001
1701526043.065,19.609,19.609,-19.609,0.0015,-0.0014,0.0216,-0.004,-0.041,-0.11800000000000001
1701526043.105,19.609,19.609,-19.609,0.0018000000000000002,-0.0001,-0.0103,-0.007,-0.048,-0.106
1701526043.145,19.609,19.609,-19.609,-0.0026000000000000003,0.0012000000000000001,-0.007200000000000001,0.006,-0.038,-0.116
1701526043.185,19.609,19.609,-19.609,0.0008,-0.00030000000000000003,0.0161,0.0,-0.036000000000000004,-0.113
1701526043.225,19.609,19.609,-19.609,-0.0007,-0.0015,-0.01,-0.013000000000000001,-0.04,-0.108
1701526043.2649999,19.609,19.609,-19.609,-0.001,-0.0022,0.007500000000000001,-0.007,-0.037,-0.116
1701526043.305,19.609,19.609,-19.609,0.0002,-0.0007,-0.029900000000000003,-0.007,-0.035,-0.117
1701526043.345,19.609,19.609,-19.609,0.0,0.0,-0.0509,-0.012,-0.04,-0.112
1701526043.385,19.609,19.609,-19.609,-0.0018000000000000002,-0.0023,0.0692,-0.004,-0.052000000000000005,-0.11800000000000001
1701526043.425,19.609,19.609,-19.609,0.00030000000000000003,-0.004,-0.043300000000000005,0.0,-0.051000000000000004,-0.113
1701526043.465,19.609,19.609,-19.609,0.0064,-0.0021000000000000003,0.035500000000000004,-0.001,-0.05,-0.109
1701526043.5049999,19.609,19.609,-19.609,0.0001,0.0009000000000000001,-0.0236,-0.005,-0.054,-0.116
1701526043.545,19.609,19.609,-19.609,-0.0006000000000000001,-0.0007,0.0316,-0.015,-0.05,-0.112
1701526043.585,19.609,19.609,-19.609,0.0009000000000000001,-0.0009000000000000001,-0.029500000000000002,-0.008,-0.051000000000000004,-0.10200000000000001
1701526043.625,19.609,19.609,-19.609,-0.0006000000000000001,-0.0029000000000000002,0.022000000000000002,0.027,-0.041,-0.12
1701526043.665,19.609,19.609,-19.609,-0.0006000000000000001,-0.0006000000000000001,-0.0217,0.004,-0.043000000000000003,-0.11800000000000001
1701526043.705,19.609,19.609,-19.609,-0.001,-0.0013000000000000002,0.020300000000000002,-0.04,-0.037,-0.10300000000000001
1701526043.745,19.609,19.609,-19.609,-0.0001,-0.001,-0.0327,-0.006,-0.026000000000000002,-0.11900000000000001
1701526043.785,19.609,19.609,-19.609,0.0002,-0.0005,0.042100000000000005,0.01,-0.04,-0.133
1701526043.825,19.609,19.609,-19.609,-0.0001,0.0004,-0.038,-0.003,-0.045,-0.106
1701526043.865,19.609,19.609,-19.609,-0.0015,0.0012000000000000001,0.0362,-0.005,-0.046,-0.109
1701526043.905,19.609,19.609,-19.609,0.0013000000000000002,-0.0011,-0.024300000000000002,0.004,-0.042,-0.12
1701526043.945,19.609,19.609,-19.609,-0.0012000000000000001,-0.0005,0.0292,-0.006,-0.046,-0.114
1701526043.985,19.609,19.609,-19.609,0.0006000000000000001,-0.0016,-0.021400000000000002,-0.004,-0.031,-0.109
1701526044.025,19.609,19.609,-19.609,-0.00030000000000000003,-0.0001,0.009300000000000001,0.002,-0.056,-0.117
1701526044.065,19.609,19.609,-19.609,0.0015,-0.0024000000000000002,0.006500000000000001,-0.007,-0.039,-0.114
1701526044.105,19.609,19.609,-19.609,-0.0028,-0.0023,-0.0166,-0.008,-0.049,-0.117
1701526044.145,19.609,19.609,-19.609,0.0018000000000000002,-0.0017000000000000001,0.0244,-0.002,-0.054,-0.115
1701526044.185,19.609,19.609,-19.609,0.001,-0.0029000000000000002,0.0064,0.0,-0.049,-0.11900000000000001
1701526044.225,19.609,19.609,-19.609,0.0012000000000000001,-0.001,-0.0211,0.001,-0.057,-0.113
1701526044.265,19.609,19.609,-19.609,-0.0021000000000000003,0.0,-0.022000000000000002,-0.002,-0.059000000000000004,-0.115
1701526044.305,19.609,19.609,-19.609,0.0014,0.0006000000000000001,0.0374,-0.007,-0.049,-0.10400000000000001
1701526044.345,19.609,19.609,-19.609,0.0015,-0.00030000000000000003,-0.038200000000000005,0.005,-0.035,-0.108
1701526044.385,19.609,19.609,-19.609,0.0004,-0.0015,0.0371,0.002,-0.04,-0.121
1701526044.425,19.609,19.609,-19.609,-0.0006000000000000001,-0.0006000000000000001,-0.0322,-0.012,-0.041,-0.11
1701526044.465,19.609,19.609,-19.609,0.0,-0.003,0.025900000000000003,-0.012,-0.037,-0.121
1701526044.505,19.609,19.609,-19.609,0.0015,-0.002,-0.031,-0.007,-0.038,-0.124
1701526044.545,19.609,19.609,-19.609,-0.0005,-0.0007,0.0307,-0.006,-0.051000000000000004,-0.115
1701526044.585,19.609,19.609,-19.609,0.0009000000000000001,-0.0015,-0.0357,-0.011,-0.047,-0.105
1701526044.625,19.609,19.609,-19.609,-0.0009000000000000001,-0.0023,0.0318,0.0,-0.042,-0.124
1701526044.665,19.609,19.609,-19.609,-0.0001,0.0,-0.035500000000000004,0.0,-0.04,-0.114
1701526044.705,19.609,19.609,-19.609,0.0004,0.0007,0.0183,-0.013000000000000001,-0.041,-0.109
1701526044.745,19.609,19.609,-19.609,-0.0007,0.0017000000000000001,-0.0044,-0.008,-0.043000000000000003,-0.117
1701526044.7849998,19.609,19.609,-19.609,0.0017000000000000001,-0.0009000000000000001,0.0245,-0.006,-0.045,-0.11800000000000001
1701526044.825,19.609,19.609,-19.609,-0.0005,-0.0007,-0.0245,-0.011,-0.043000000000000003,-0.113
1701526044.865,19.609,19.609,-19.609,0.0043,-0.0012000000000000001,0.027600000000000003,-0.009000000000000001,-0.041,-0.116
1701526044.905,19.609,19.609,-19.609,-0.0009000000000000001,-0.0012000000000000001,-0.0432,-0.003,-0.042,-0.116
1701526044.945,19.609,19.609,-19.609,-0.0014,-0.0001,0.0403,-0.01,-0.041,-0.117
1701526044.985,19.609,19.609,-19.609,-0.0018000000000000002,-0.0004,-0.0478,-0.006,-0.047,-0.117
1701526045.0249999,19.609,19.609,-19.609,-0.00030000000000000003,0.0002,0.0158,-0.023,-0.047,-0.12
1701526045.065,19.609,19.609,-19.609,0.0009000000000000001,-0.001,-0.0078000000000000005,-0.018000000000000002,-0.045,-0.113
1701526045.105,19.609,19.609,-19.609,0.0009000000000000001,-0.00030000000000000003,0.0218,0.0,-0.038,-0.125
1701526045.145,19.609,19.609,-19.609,0.0015,-0.0007,-0.006,-0.001,-0.038,-0.116
1701526045.185,19.609,19.609,-19.609,-0.0026000000000000003,0.00030000000000000003,0.0068000000000000005,-0.018000000000000002,-0.039,-0.105
1701526045.225,19.609,19.609,-19.609,-0.0012000000000000001,0.0,-0.027800000000000002,-0.01,-0.038,-0.11900000000000001
1701526045.2649999,19.609,19.609,-19.609,0.0017000000000000001,0.0008,0.015600000000000001,-0.003,-0.036000000000000004,-0.117
1701526045.305,19.609,19.609,-19.609,-0.00030000000000000003,0.0001,0.017,-0.012,-0.047,-0.107
1701526045.345,19.609,19.609,-19.609,-0.0009000000000000001,0.002,-0.0303,-0.012,-0.038,-0.114
1701526045.385,19.609,19.609,-19.609,-0.0007,-0.0014,0.031100000000000003,-0.005,-0.04,-0.126
1701526045.425,19.609,19.609,-19.609,-0.001,0.0004,-0.020800000000000003,-0.017,-0.033,-0.108
1701526045.465,19.609,19.609,-19.609,0.0029000000000000002,-0.0006000000000000001,0.0082,-0.017,-0.042,-0.108
1701526045.5049999,19.609,19.609,-19.609,-0.0006000000000000001,-0.0007,-0.0167,-0.001,-0.038,-0.115
1701526045.545,19.609,19.609,-19.609,-0.0018000000000000002,-0.0015,0.014700000000000001,-0.008,-0.039,-0.11800000000000001
1701526045.585,19.609,19.609,-19.609,-0.001,-0.0002,-0.0145,-0.001,-0.043000000000000003,-0.113
1701526045.625,19.609,19.609,-19.609,0.0014,0.0,0.009300000000000001,-0.006,-0.046,-0.108
1701526045.665,19.609,19.609,-19.609,0.0014,-0.001,-0.0112,-0.005,-0.037,-0.117
1701526045.705,19.609,19.609,-19.609,0.0001,-0.00030000000000000003,0.0145,-0.001,-0.06,-0.114
1701526045.745,19.609,19.609,-19.609,0.0009000000000000001,0.002,0.0021000000000000003,0.029,-0.052000000000000005,-0.11800000000000001
1701526045.785,19.609,19.609,-19.609,0.001,-0.0016,-0.027800000000000002,-0.022,-0.046,-0.112
1701526045.825,19.609,19.609,-19.609,-0.0016,-0.0009000000000000001,0.0059,-0.008,-0.039,-0.099
1701526045.865,19.609,19.609,-19.609,-0.0018000000000000002,0.0004,0.0039000000000000003,-0.001,-0.042,-0.125
1701526045.905,19.609,19.609,-19.609,0.0023,-0.0022,0.0058000000000000005,0.0,-0.039,-0.125
1701526045.945,19.609,19.609,-19.609,0.0008,-0.0008,-0.0256,-0.029,-0.043000000000000003,-0.11
1701526045.985,19.609,19.609,-19.609,0.001,-0.0017000000000000001,0.0239,-0.017,-0.034,-0.11800000000000001
1701526046.025,19.609,19.609,-19.609,0.0,0.0006000000000000001,-0.0183,-0.005,-0.041,-0.128
1701526046.065,19.609,19.609,-19.609,0.0005,-0.0016,0.01,-0.008,-0.018000000000000002,-0.11800000000000001
1701526046.105,19.609,19.609,-19.609,-0.0007,0.00030000000000000003,-0.0363,-0.007,-0.047,-0.111
1701526046.145,19.609,19.609,-19.609,0.0007,-0.0023,0.039,0.0,-0.035,-0.121
1701526046.185,19.609,19.609,-19.609,0.00030000000000000003,-0.0007,-0.043300000000000005,-0.01,-0.039,-0.112
1701526046.225,19.609,19.609,-19.609,0.0008,0.0004,0.041100000000000005,-0.019,-0.037,-0.113
1701526046.265,19.609,19.609,-19.609,0.0007,0.001,-0.039400000000000004,0.006,-0.037,-0.122
1701526046.305,19.609,19.609,-19.609,-0.0001,-0.0007,0.030600000000000002,0.001,-0.044,-0.11800000000000001
1701526046.345,19.609,19.609,-19.609,0.0015,0.0025,-0.0162,-0.01,-0.048,-0.112
1701526046.385,19.609,19.609,-19.609,-0.0001,-0.001,-0.0324,-0.004,-0.048,-0.116
1701526046.425,19.609,19.609,-19.609,-0.0011,0.0013000000000000002,0.0426,-0.004,-0.044,-0.107
1701526046.465,19.609,19.609,-19.609,0.0,0.0,-0.0071,-0.004,-0.051000000000000004,-0.116
1701526046.505,19.609,19.609,-19.609,0.0032,0.0005,-0.0045000000000000005,-0.01,-0.057,-0.11800000000000001
1701526046.545,19.609,19.609,-19.609,0.0013000000000000002,-0.0008,-0.0026000000000000003,-0.014,-0.046,-0.111
1701526046.585,19.609,19.609,-19.609,-0.001,-0.001,-0.007200000000000001,0.0,-0.043000000000000003,-0.111
1701526046.625,19.609,19.609,-19.609,-0.0006000000000000001,0.0004,0.0188,0.008,-0.043000000000000003,-0.123
1701526046.665,19.609,19.609,-19.609,0.001,0.0001,-0.015600000000000001,-0.013000000000000001,-0.038,-0.116
1701526046.705,19.609,19.609,-19.609,0.0007,-0.0002,0.0281,-0.02,-0.038,-0.111
1701526046.745,19.609,19.609,-19.609,0.0006000000000000001,-0.0006000000000000001,-0.0211,-0.007,-0.031,-0.11800000000000001
1701526046.7849998,19.609,19.609,-19.609,-0.0019,-0.0025,0.0,-0.001,-0.042,-0.125
1701526046.825,19.609,19.609,-19.609,0.002,-0.00030000000000000003,-0.0036000000000000003,-0.007,-0.047,-0.11
1701526046.865,19.609,19.609,-19.609,0.0004,-0.002,-0.0181,-0.013000000000000001,-0.04,-0.113
1701526046.905,19.609,19.609,-19.609,0.0017000000000000001,-0.0019,0.0173,0.002,-0.039,-0.116
1701526046.945,19.609,19.609,-19.609,0.0033,0.0006000000000000001,-0.0014,-0.007,-0.046,-0.107
1701526046.985,19.609,19.609,-19.609,0.0,-0.0014,0.023700000000000002,-0.009000000000000001,-0.037,-0.114
1701526047.0249999,19.609,19.609,-19.609,0.001,-0.0012000000000000001,-0.0193,0.001,-0.036000000000000004,-0.12
1701526047.065,19.609,19.609,-19.609,0.00030000000000000003,-0.0018000000000000002,0.0206,-0.007,-0.042,-0.116
1701526047.105,19.609,19.609,-19.609,-0.0002,-0.0001,-0.016800000000000002,-0.006,-0.045,-0.114
1701526047.145,19.609,19.609,-19.609,-0.0008,-0.0004,0.04,0.0,-0.049,-0.116
1701526047.185,19.609,19.609,-19.609,0.0006000000000000001,-0.0014,-0.0374,-0.007,-0.043000000000000003,-0.10400000000000001
1701526047.225,19.609,19.609,-19.609,0.0007,0.0014,0.0261,0.0,-0.053,-0.113
1701526047.2649999,19.609,19.609,-19.609,0.00030000000000000003,-0.0001,-0.0322,-0.003,-0.048,-0.116
1701526047.305,19.609,19.609,-19.609,-0.001,-0.0015,0.0097,-0.012,-0.043000000000000003,-0.105
1701526047.345,19.609,19.609,-19.609,0.0004,-0.0011,0.0018000000000000002,-0.009000000000000001,-0.035,-0.107
1701526047.385,19.609,19.609,-19.609,0.001,-0.001,0.007500000000000001,0.019,-0.037,-0.121
1701526047.425,19.609,19.609,-19.609,0.0021000000000000003,-0.0007,-0.0137,-0.004,-0.038,-0.11800000000000001
1701526047.465,19.609,19.609,-19.609,-0.0007,-0.0012000000000000001,0.0019,-0.022,-0.042,-0.112
1701526047.5049999,19.609,19.609,-19.609,-0.0007,-0.0008,0.008400000000000001,-0.012,-0.036000000000000004,-0.11900000000000001
1701526047.545,19.609,19.609,-19.609,-0.0009000000000000001,-0.0004,-0.0223,0.004,-0.043000000000000003,-0.128
1701526047.585,19.609,19.609,-19.609,0.0014,-0.0001,0.0129,-0.004,-0.054,-0.109
1701526047.625,19.609,19.609,-19.609,0.00030000000000000003,-0.0007,0.0044,0.0,-0.059000000000000004,-0.117
1701526047.665,19.609,19.609,-19.609,0.0015,0.00030000000000000003,-0.020200000000000003,0.006,-0.04,-0.121
1701526047.705,19.609,19.609,-19.609,0.001,-0.0005,0.0317,-0.007,-0.074,-0.109
1701526047.745,19.609,19.609,-19.609,0.0012000000000000001,-0.0002,-0.0379,-0.019,-0.035,-0.11900000000000001
1701526047.785,19.609,19.609,-19.609,0.0023,0.0007,0.0328,0.001,-0.039,-0.123
1701526047.825,19.609,19.609,-19.609,0.0036000000000000003,-0.0012000000000000001,-0.015000000000000001,-0.006,-0.046,-0.121
1701526047.865,19.609,19.609,-19.609,-0.0028,-0.0017000000000000001,-0.010100000000000001,-0.001,-0.051000000000000004,-0.12
1701526047.905,19.609,19.609,-19.609,0.0,-0.0007,0.0193,0.004,-0.048,-0.123
1701526047.945,19.609,19.609,-19.609,0.0028,-0.0016,-0.0201,-0.002,-0.041,-0.11900000000000001
1701526047.985,19.609,19.609,-19.609,0.0015,-0.0007,-0.0001,-0.007,-0.058,-0.11900000000000001
1701526048.025,19.609,19.609,-19.609,0.0021000000000000003,-0.0028,0.0158,-0.003,-0.022,-0.12
1701526048.065,19.609,19.609,-19.609,0.00030000000000000003,-0.0022,-0.034300000000000004,-0.008,-0.051000000000000004,-0.107
1701526048.105,19.609,19.609,-19.609,0.004,-0.0007,0.0234,0.006,-0.04,-0.116
1701526048.145,19.609,19.609,-19.609,-0.0017000000000000001,-0.00030000000000000003,0.01,0.003,-0.04,-0.124
1701526048.185,19.609,19.609,-19.609,0.0011,-0.0002,-0.025500000000000002,-0.007,-0.042,-0.117
1701526048.225,19.609,19.609,-19.609,-0.0001,-0.0017000000000000001,0.0318,-0.009000000000000001,-0.039,-0.117
1701526048.265,19.609,19.609,-19.609,0.0025,-0.0009000000000000001,-0.0187,0.001,-0.05,-0.125
1701526048.305,19.609,19.609,-19.609,-0.0011,0.0006000000000000001,0.0142,-0.01,-0.061,-0.11
1701526048.345,19.609,19.609,-19.609,0.0014,-0.0006000000000000001,-0.025500000000000002,-0.011,-0.047,-0.108
1701526048.385,19.609,19.609,-19.609,-0.0002,-0.002,0.0308,0.005,-0.049,-0.12
1701526048.425,19.609,19.609,-19.609,0.0027,-0.0007,-0.042100000000000005,-0.007,-0.043000000000000003,-0.114
1701526048.465,19.609,19.609,-19.609,0.0015,-0.0002,0.0371,-0.009000000000000001,-0.041,-0.114
1701526048.505,19.609,19.609,-19.609,-0.0001,-0.0015,-0.0098,-0.005,-0.035,-0.11800000000000001
1701526048.545,19.609,19.609,-19.609,-0.0014,-0.0018000000000000002,-0.0007,-0.013000000000000001,-0.037,-0.113
1701526048.585,19.609,19.609,-19.609,-0.0019,0.0,-0.0077,-0.01,-0.041,-0.114
1701526048.625,19.609,19.609,-19.609,0.0009000000000000001,-0.0001,0.0064,-0.011,-0.049,-0.117
1701526048.665,19.609,19.609,-19.609,0.00030000000000000003,0.0013000000000000002,0.0187,-0.006,-0.045,-0.114
1701526048.705,19.609,19.609,-19.609,0.0027,-0.0009000000000000001,-0.04,-0.01,-0.036000000000000004,-0.116
1701526048.745,19.609,19.609,-19.609,0.0011,-0.0009000000000000001,0.0012000000000000001,-0.009000000000000001,-0.047,-0.11800000000000001
1701526048.7849998,19.609,19.609,-19.609,-0.0024000000000000002,-0.0009000000000000001,-0.0132,-0.018000000000000002,-0.047,-0.113
1701526048.825,19.609,19.609,-19.609,0.0026000000000000003,-0.0001,-0.019200000000000002,-0.018000000000000002,-0.047,-0.10300000000000001
1701526048.865,19.609,19.609,-19.609,-0.0008,-0.0001,-0.0165,0.001,-0.041,-0.11900000000000001
1701526048.905,19.609,19.609,-19.609,-0.0009000000000000001,0.0009000000000000001,-0.009000000000000001,0.001,-0.045,-0.12
1701526048.945,19.609,19.609,-19.609,-0.0001,-0.0007,0.0327,-0.023,-0.045,-0.111
1701526048.985,19.609,19.609,-19.609,-0.0004,0.0,-0.0466,-0.019,-0.04,-0.115
1701526049.0249999,19.609,19.609,-19.609,0.004,-0.0014,0.0485,-0.007,-0.043000000000000003,-0.125
1701526049.065,19.609,19.609,-19.609,0.0009000000000000001,-0.0001,-0.0161,-0.014,-0.043000000000000003,-0.114
1701526049.105,19.609,19.609,-19.609,-0.00030000000000000003,0.0006000000000000001,0.0155,-0.012,-0.041,-0.11
1701526049.145,19.609,19.609,-19.609,0.0004,0.0009000000000000001,-0.051300000000000005,-0.002,-0.031,-0.123
1701526049.185,19.609,19.609,-19.609,0.0001,0.0001,0.053700000000000005,-0.027,-0.03,-0.112
1701526049.225,19.609,19.609,-19.609,0.00030000000000000003,-0.00030000000000000003,-0.0437,-0.018000000000000002,-0.038,-0.112
1701526049.2649999,19.609,19.609,-19.609,0.0015,-0.0021000000000000003,0.027100000000000003,-0.01,-0.034,-0.117
1701526049.305,19.609,19.609,-19.609,0.0007,0.0004,-0.014,-0.005,-0.039,-0.122
1701526049.345,19.609,19.609,-19.609,0.0014,-0.001,0.0233,-0.015,-0.048,-0.117
1701526049.385,19.609,19.609,-19.609,0.00030000000000000003,-0.0019,-0.035500000000000004,-0.007,-0.05,-0.114
1701526049.425,19.609,19.609,-19.609,0.0004,-0.0004,0.0342,-0.006,-0.047,-0.115
1701526049.465,19.609,19.609,-19.609,0.0004,0.002,-0.0361,-0.002,-0.055,-0.107
1701526049.5049999,19.609,19.609,-19.609,0.0001,0.0,0.0274,0.001,-0.057,-0.116
1701526049.545,19.609,19.609,-19.609,-0.0045000000000000005,-0.0019,-0.0244,-0.015,-0.054,-0.111
1701526049.585,19.609,19.609,-19.609,0.0,-0.0007,0.0059,-0.024,-0.051000000000000004,-0.09
1701526049.625,19.609,19.609,-19.609,-0.0012000000000000001,-0.0009000000000000001,0.0166,0.004,-0.044,-0.116
1701526049.665,19.609,19.609,-19.609,-0.00030000000000000003,-0.0022,0.0056,-0.002,-0.042,-0.116
1701526049.705,19.609,19.609,-19.609,0.001,-0.0031000000000000003,-0.038700000000000005,-0.031,-0.042,-0.113
1701526049.745,19.609,19.609,-19.609,-0.0017000000000000001,-0.0017000000000000001,0.0425,-0.018000000000000002,-0.037,-0.11900000000000001
1701526049.785,19.609,19.609,-19.609,-0.0012000000000000001,0.0,-0.0324,-0.002,-0.049,-0.124
1701526049.825,19.609,19.609,-19.609,0.0008,0.0024000000000000002,0.0357,-0.011,-0.048,-0.112
1701526049.865,19.609,19.609,-19.609,-0.0006000000000000001,0.0005,-0.035500000000000004,-0.006,-0.046,-0.107
1701526049.905,19.609,19.609,-19.609,-0.0012000000000000001,-0.0013000000000000002,0.0415,0.001,-0.042,-0.113
1701526049.945,19.609,19.609,-19.609,-0.0014,0.001,-0.045000000000000005,-0.003,-0.04,-0.114
1701526049.985,19.609,19.609,-19.609,0.0014,-0.0018000000000000002,0.005,-0.004,-0.041,-0.112
1701526050.025,19.609,19.609,-19.609,0.0004,-0.0017000000000000001,0.0188,-0.003,-0.04,-0.114
1701526050.065,19.609,19.609,-19.609,-0.0001,-0.0006000000000000001,-0.0369,-0.005,-0.043000000000000003,-0.114
1701526050.105,19.609,19.609,-19.609,-0.0009000000000000001,0.0,0.0375,-0.01,-0.047,-0.115
1701526050.145,19.609,19.609,-19.609,0.0014,-0.0007,-0.018000000000000002,-0.008,-0.046,-0.111
1701526050.185,19.609,19.609,-19.609,-0.0009000000000000001,0.001,-0.0033,-0.005,-0.046,-0.116
1701526050.225,19.609,19.609,-19.609,-0.0007,-0.00030000000000000003,0.005,-0.002,-0.049,-0.11800000000000001
1701526050.265,19.609,19.609,-19.609,0.0017000000000000001,-0.0011,0.0035,-0.003,-0.05,-0.115
1701526050.305,19.609,19.609,-19.609,0.0008,-0.0001,0.0022,-0.007,-0.049,-0.113
1701526050.345,19.609,19.609,-19.609,-0.0001,0.0004,-0.0152,-0.006,-0.046,-0.107
1701526050.385,19.609,19.609,-19.609,0.00030000000000000003,-0.0019,0.027800000000000002,0.01,-0.042,-0.122
1701526050.425,19.609,19.609,-19.609,0.00030000000000000003,-0.0012000000000000001,-0.031900000000000005,-0.01,-0.041,-0.117
1701526050.465,19.609,19.609,-19.609,0.00030000000000000003,-0.0021000000000000003,0.0391,-0.025,-0.034,-0.109
1701526050.505,19.609,19.609,-19.609,0.0009000000000000001,-0.001,-0.028,-0.003,-0.031,-0.12
1701526050.545,19.609,19.609,-19.609,0.0017000000000000001,-0.0016,0.0235,0.001,-0.041,-0.124
1701526050.585,19.609,19.609,-19.609,0.0018000000000000002,-0.0015,-0.053200000000000004,-0.009000000000000001,-0.047,-0.106
1701526050.625,19.609,19.609,-19.609,0.0019,-0.0005,0.0316,-0.009000000000000001,-0.04,-0.11
1701526050.665,19.609,19.609,-19.609,0.0001,-0.0017000000000000001,0.029900000000000003,0.007,-0.038,-0.115
1701526050.705,19.609,19.609,-19.609,-0.0028,-0.0004,-0.0071,-0.01,-0.04,-0.111
1701526050.745,19.609,19.609,-19.609,-0.0009000000000000001,0.0001,-0.0148,-0.01,-0.043000000000000003,-0.116
1701526050.7849998,19.609,19.609,-19.609,0.0006000000000000001,-0.0001,-0.0198,0.001,-0.038,-0.11900000000000001
1701526050.825,19.609,19.609,-19.609,-0.0021000000000000003,-0.0001,0.028900000000000002,-0.007,-0.041,-0.116
1701526050.865,19.609,19.609,-19.609,0.0004,-0.0005,-0.0426,-0.004,-0.043000000000000003,-0.115
1701526050.905,19.609,19.609,-19.609,-0.0023,0.0017000000000000001,0.0529,-0.001,-0.045,-0.117
1701526050.945,19.609,19.609,-19.609,0.002,-0.0004,-0.0131,-0.001,-0.046,-0.114
1701526050.985,19.609,19.609,-19.609,-0.0001,0.0,-0.0414,0.0,-0.044,-0.115
1701526051.0249999,19.609,19.609,-19.609,-0.0012000000000000001,-0.0015,0.062,0.001,-0.048,-0.116
1701526051.065,19.609,19.609,-19.609,0.0027,-0.0014,-0.0328,-0.013000000000000001,-0.045,-0.116
1701526051.105,19.609,19.609,-19.609,0.0002,0.0006000000000000001,0.0261,-0.007,-0.047,-0.1
1701526051.145,19.609,19.609,-19.609,-0.0015,0.0028,-0.031400000000000004,0.021,-0.035,-0.127
1701526051.185,19.609,19.609,-19.609,0.001,0.0,0.0308,0.0,-0.045,-0.12
1701526051.225,19.609,19.609,-19.609,0.0026000000000000003,-0.0039000000000000003,-0.0261,-0.025,-0.044,-0.106
1701526051.2649999,19.609,19.609,-19.609,0.0004,0.00030000000000000003,0.006900000000000001,-0.007,-0.035,-0.11800000000000001
1701526051.305,19.609,19.609,-19.609,0.0001,-0.00030000000000000003,-0.0099,-0.004,-0.042,-0.127
1701526051.345,19.609,19.609,-19.609,0.0011,-0.0021000000000000003,0.0149,-0.006,-0.059000000000000004,-0.105
1701526051.385,19.609,19.609,-19.609,0.0006000000000000001,-0.0009000000000000001,-0.0037,0.046,-0.042,-0.112
1701526051.425,19.609,19.609,-19.609,-0.0023,0.0032,-0.008,0.008,-0.035,-0.11800000000000001
1701526051.465,19.609,19.609,-19.609,-0.0027,-0.0016,-0.0112,-0.039,-0.045,-0.107
1701526051.5049999,19.609,19.609,-19.609,0.0006000000000000001,0.0,0.039,-0.006,-0.047,-0.114
1701526051.545,19.609,19.609,-19.609,0.0016,-0.0004,-0.0438,0.004,-0.041,-0.116
1701526051.585,19.609,19.609,-19.609,0.0011,-0.0008,0.034300000000000004,-0.003,-0.042,-0.11900000000000001
1701526051.625,19.609,19.609,-19.609,0.001,-0.00030000000000000003,-0.006200000000000001,-0.009000000000000001,-0.049,-0.112
1701526051.665,19.609,19.609,-19.609,0.0006000000000000001,0.0,-0.0244,-0.005,-0.043000000000000003,-0.117
1701526051.705,19.609,19.609,-19.609,0.0,-0.0017000000000000001,0.0369,0.0,-0.044,-0.114
1701526051.745,19.609,19.609,-19.609,0.00030000000000000003,0.0,0.0008,0.0,-0.05,-0.11900000000000001
1701526051.785,19.609,19.609,-19.609,0.0001,-0.00030000000000000003,-0.0432,-0.005,-0.053,-0.12
1701526051.825,19.609,19.609,-19.609,0.0015,-0.0001,0.0444,-0.01,-0.043000000000000003,-0.112
1701526051.865,19.609,19.609,-19.609,0.0,-0.0007,-0.0361,-0.005,-0.044,-0.116
1701526051.905,19.609,19.609,-19.609,0.0002,-0.0014,0.0347,0.003,-0.045,-0.123
1701526051.945,19.609,19.609,-19.609,0.0007,-0.0026000000000000003,-0.0434,-0.004,-0.046,-0.116
1701526051.985,19.609,19.609,-19.609,-0.0004,0.0001,0.036500000000000005,-0.016,-0.036000000000000004,-0.115
1701526052.025,19.609,19.609,-19.609,-0.0033,0.0011,-0.0334,-0.006,-0.034,-0.125
1701526052.065,19.609,19.609,-19.609,-0.00030000000000000003,-0.002,0.0332,-0.01,-0.046,-0.111
1701526052.105,19.609,19.609,-19.609,-0.0007,-0.0018000000000000002,-0.033600000000000005,-0.02,-0.045,-0.11
1701526052.145,19.609,19.609,-19.609,-0.0001,-0.001,0.0436,-0.004,-0.04,-0.117
1701526052.185,19.609,19.609,-19.609,-0.0009000000000000001,0.002,-0.0287,-0.008,-0.041,-0.11900000000000001
1701526052.225,19.609,19.609,-19.609,0.0008,-0.0027,0.033,-0.021,-0.041,-0.113
1701526052.265,19.609,19.609,-19.609,0.0017000000000000001,-0.0007,-0.046200000000000005,-0.009000000000000001,-0.047,-0.11900000000000001
1701526052.305,19.609,19.609,-19.609,0.0004,-0.0031000000000000003,0.04,-0.005,-0.047,-0.115
1701526052.345,19.609,19.609,-19.609,0.0024000000000000002,-0.0012000000000000001,-0.0081,-0.013000000000000001,-0.04,-0.12
1701526052.385,19.609,19.609,-19.609,0.0009000000000000001,0.0,-0.007200000000000001,-0.007,-0.043000000000000003,-0.111
1701526052.425,19.609,19.609,-19.609,0.0,-0.0007,-0.0036000000000000003,-0.001,-0.041,-0.116
1701526052.465,19.609,19.609,-19.609,-0.00030000000000000003,0.0001,-0.033800000000000004,-0.009000000000000001,-0.043000000000000003,-0.107
1701526052.505,19.609,19.609,-19.609,0.0028,-0.0006000000000000001,0.0371,-0.001,-0.049,-0.116
1701526052.545,19.609,19.609,-19.609,0.0007,-0.0009000000000000001,-0.026000000000000002,-0.007,-0.057,-0.11800000000000001
1701526052.585,19.609,19.609,-19.609,0.0031000000000000003,-0.0004,0.0388,-0.019,-0.042,-0.107
1701526052.625,19.609,19.609,-19.609,0.0013000000000000002,-0.0025,-0.030500000000000003,-0.001,-0.039,-0.10400000000000001
1701526052.665,19.609,19.609,-19.609,-0.002,-0.0006000000000000001,0.0267,0.005,-0.039,-0.124
1701526052.705,19.609,19.609,-19.609,0.0009000000000000001,0.0007,-0.012400000000000001,-0.016,-0.037,-0.108
1701526052.745,19.609,19.609,-19.609,0.0011,-0.0011,-0.0004,-0.023,-0.037,-0.106
1701526052.7849998,19.609,19.609,-19.609,0.0016,0.0018000000000000002,0.0018000000000000002,0.0,-0.051000000000000004,-0.121
1701526052.825,19.609,19.609,-19.609,-0.0015,-0.0029000000000000002,-0.0152,-0.003,-0.049,-0.12
1701526052.865,19.609,19.609,-19.609,-0.0004,-0.00030000000000000003,0.027800000000000002,-0.015,-0.051000000000000004,-0.1
1701526052.905,19.609,19.609,-19.609,-0.00030000000000000003,-0.0018000000000000002,-0.010400000000000001,-0.005,-0.045,-0.11900000000000001
1701526052.945,19.609,19.609,-19.609,-0.0001,0.0006000000000000001,-0.0145,-0.006,-0.041,-0.115
1701526052.985,19.609,19.609,-19.609,-0.0012000000000000001,-0.0013000000000000002,-0.028300000000000002,-0.016,-0.04,-0.113
1701526053.0249999,19.609,19.609,-19.609,-0.0004,-0.0023,0.0526,-0.007,-0.039,-0.111
1701526053.065,19.609,19.609,-19.609,0.0019,0.0018000000000000002,-0.0172,-0.005,-0.042,-0.114
1701526053.105,19.609,19.609,-19.609,0.0,-0.0007,-0.016800000000000002,-0.01,-0.039,-0.113
1701526053.145,19.609,19.609,-19.609,0.0029000000000000002,-0.0013000000000000002,0.028300000000000002,-0.009000000000000001,-0.045,-0.12
1701526053.185,19.609,19.609,-19.609,-0.0002,-0.0017000000000000001,-0.0397,-0.004,-0.049,-0.112
1701526053.225,19.609,19.609,-19.609,-0.0001,0.0005,0.019100000000000002,-0.003,-0.051000000000000004,-0.114
1701526053.2649999,19.609,19.609,-19.609,0.0012000000000000001,-0.0006000000000000001,-0.0142,0.007,-0.052000000000000005,-0.114
1701526053.305,19.609,19.609,-19.609,0.0012000000000000001,-0.0008,0.0054,-0.004,-0.051000000000000004,-0.117
1701526053.345,19.609,19.609,-19.609,-0.00030000000000000003,-0.0019,0.0001,-0.011,-0.028,-0.10200000000000001
1701526053.385,19.609,19.609,-19.609,0.0017000000000000001,0.0024000000000000002,0.0239,-0.001,-0.042,-0.1
1701526053.425,19.609,19.609,-19.609,0.0004,-0.0017000000000000001,-0.0429,0.005,-0.043000000000000003,-0.13
1701526053.465,19.609,19.609,-19.609,0.0015,-0.0004,0.0046,-0.015,-0.041,-0.116
1701526053.5049999,19.609,19.609,-19.609,0.0002,-0.0018000000000000002,0.0092,-0.028,-0.036000000000000004,-0.10300000000000001
1701526053.545,19.609,19.609,-19.609,-0.001,-0.0005,0.0073,-0.003,-0.037,-0.12
1701526053.585,19.609,19.609,-19.609,0.0004,0.0007,-0.009600000000000001,0.0,-0.04,-0.123
1701526053.625,19.609,19.609,-19.609,-0.0007,-0.0014,0.0053,-0.011,-0.05,-0.108
1701526053.665,19.609,19.609,-19.609,0.0,-0.00030000000000000003,0.0091,-0.006,-0.046,-0.111
1701526053.705,19.609,19.609,-19.609,0.0006000000000000001,-0.00030000000000000003,-0.0143,0.0,-0.037,-0.112
1701526053.745,19.609,19.609,-19.609,0.0007,0.0017000000000000001,0.0115,-0.007,-0.045,-0.111
1701526053.785,19.609,19.609,-19.609,-0.0005,-0.0025,-0.0056,-0.003,-0.041,-0.115
1701526053.825,19.609,19.609,-19.609,-0.0027,-0.0025,-0.0092,0.007,-0.035,-0.126
1701526053.865,19.609,19.609,-19.609,-0.001,0.0001,0.0125,-0.006,-0.049,-0.111
1701526053.905,19.609,19.609,-19.609,-0.002,0.0013000000000000002,-0.0026000000000000003,-0.009000000000000001,-0.048,-0.121
1701526053.945,19.609,19.609,-19.609,-0.0006000000000000001,-0.00030000000000000003,-0.0307,-0.004,-0.048,-0.116
1701526053.985,19.609,19.609,-19.609,0.0,-0.0026000000000000003,0.0408,-0.008,-0.054,-0.108
1701526054.025,19.609,19.609,-19.609,0.0026000000000000003,-0.0032,-0.0458,0.002,-0.053,-0.115
1701526054.065,19.609,19.609,-19.609,0.0006000000000000001,-0.0007,0.0473,0.0,-0.057,-0.114
1701526054.105,19.609,19.609,-19.609,-0.0005,-0.0018000000000000002,-0.0584,-0.015,-0.044,-0.105
1701526054.145,19.609,19.609,-19.609,-0.0015,-0.0006000000000000001,0.0487,-0.002,-0.039,-0.107
1701526054.185,19.609,19.609,-19.609,0.0,-0.0008,-0.0297,0.011,-0.04,-0.125
1701526054.225,19.609,19.609,-19.609,-0.0028,0.0005,0.0128,-0.016,-0.04,-0.115
1701526054.265,19.609,19.609,-19.609,0.0007,-0.0016,-0.0083,-0.021,-0.032,-0.11
1701526054.305,19.609,19.609,-19.609,0.0012000000000000001,-0.0004,-0.025,-0.005,-0.032,-0.124
1701526054.345,19.609,19.609,-19.609,-0.0002,-0.0001,0.0086,0.002,-0.042,-0.11800000000000001
1701526054.385,19.609,19.609,-19.609,-0.0018000000000000002,0.0001,0.033,-0.009000000000000001,-0.041,-0.106
1701526054.425,19.609,19.609,-19.609,0.001,-0.0005,-0.0363,0.006,-0.043000000000000003,-0.116
1701526054.465,19.609,19.609,-19.609,-0.0001,0.0,0.0316,0.0,-0.04,-0.121
1701526054.505,19.609,19.609,-19.609,-0.00030000000000000003,-0.0005,-0.024900000000000002,-0.013000000000000001,-0.039,-0.106
1701526054.545,19.609,19.609,-19.609,0.0025,-0.0015,0.027200000000000002,0.002,-0.04,-0.114
1701526054.585,19.609,19.609,-19.609,0.0026000000000000003,-0.00030000000000000003,-0.016,0.001,-0.037,-0.125
1701526054.625,19.609,19.609,-19.609,-0.0015,-0.0002,0.007200000000000001,-0.007,-0.043000000000000003,-0.117
1701526054.665,19.609,19.609,-19.609,-0.0007,-0.0009000000000000001,-0.0035,-0.001,-0.047,-0.113
1701526054.705,19.609,19.609,-19.609,0.0013000000000000002,0.0001,0.0106,0.003,-0.049,-0.11800000000000001
1701526054.745,19.609,19.609,-19.609,0.0005,-0.0007,-0.0267,-0.008,-0.051000000000000004,-0.113
1701526054.7849998,19.609,19.609,-19.609,0.0012000000000000001,0.0009000000000000001,0.0379,0.0,-0.05,-0.115
1701526054.825,19.609,19.609,-19.609,0.0004,-0.0015,-0.0239,0.005,-0.062,-0.125
1701526054.865,19.609,19.609,-19.609,0.0026000000000000003,0.0002,0.015600000000000001,-0.017,-0.051000000000000004,-0.10200000000000001
1701526054.905,19.609,19.609,-19.609,0.0006000000000000001,-0.0011,-0.0262,0.0,-0.036000000000000004,-0.113
1701526054.945,19.609,19.609,-19.609,0.0017000000000000001,-0.0028,0.0172,0.008,-0.034,-0.125
1701526054.985,19.609,19.609,-19.609,0.0017000000000000001,-0.0004,-0.0092,-0.012,-0.036000000000000004,-0.112
1701526055.0249999,19.609,19.609,-19.609,0.002,-0.0018000000000000002,0.0264,-0.012,-0.035,-0.111
1701526055.065,19.609,19.609,-19.609,0.0004,-0.0023,-0.0142,0.007,-0.047,-0.124
1701526055.105,19.609,19.609,-19.609,-0.0005,-0.0001,0.0098,-0.008,-0.044,-0.112
1701526055.145,19.609,19.609,-19.609,0.0012000000000000001,-0.0007,0.0007,-0.001,-0.057,-0.113
1701526055.185,19.609,19.609,-19.609,0.001,-0.0027,-0.013800000000000002,0.002,-0.039,-0.122
1701526055.225,19.609,19.609,-19.609,-0.0001,-0.0002,0.0011,-0.006,-0.052000000000000005,-0.121
1701526055.2649999,19.609,19.609,-19.609,0.001,-0.0019,0.011600000000000001,-0.006,-0.048,-0.113
1701526055.305,19.609,19.609,-19.609,-0.001,-0.0005,-0.0386,0.031,-0.051000000000000004,-0.11800000000000001
1701526055.345,19.609,19.609,-19.609,-0.00030000000000000003,-0.0012000000000000001,0.0369,-0.008,-0.044,-0.11800000000000001
1701526055.385,19.609,19.609,-19.609,0.0006000000000000001,0.0006000000000000001,-0.0397,-0.029,-0.056,-0.116
1701526055.425,19.609,19.609,-19.609,0.0026000000000000003,-0.0012000000000000001,0.026000000000000002,-0.004,-0.047,-0.124
1701526055.465,19.609,19.609,-19.609,-0.0004,-0.0007,-0.0053,-0.004,-0.047,-0.114
1701526055.5049999,19.609,19.609,-19.609,0.0048000000000000004,0.0016,-0.0189,-0.01,-0.052000000000000005,-0.113
1701526055.545,19.609,19.609,-19.609,0.0018000000000000002,-0.0038,0.0182,0.0,-0.049,-0.115
1701526055.585,19.609,19.609,-19.609,-0.0012000000000000001,-0.0017000000000000001,0.0055000000000000005,-0.014,-0.034,-0.108
1701526055.625,19.609,19.609,-19.609,-0.0012000000000000001,-0.0004,-0.0106,-0.01,-0.037,-0.106
1701526055.665,19.609,19.609,-19.609,0.0001,-0.0043,0.013300000000000001,0.003,-0.037,-0.122
1701526055.705,19.609,19.609,-19.609,0.001,-0.0008,-0.024200000000000003,-0.01,-0.04,-0.12
1701526055.745,19.609,19.609,-19.609,-0.0005,-0.0012000000000000001,0.0198,-0.02,-0.035,-0.114
1701526055.785,19.609,19.609,-19.609,0.0002,-0.0001,-0.0239,-0.003,-0.035,-0.12
1701526055.825,19.609,19.609,-19.609,-0.0017000000000000001,-0.0011,0.0187,-0.004,-0.036000000000000004,-0.11800000000000001
1701526055.865,19.609,19.609,-19.609,0.001,-0.0007,-0.0304,-0.014,-0.048,-0.107
1701526055.905,19.609,19.609,-19.609,0.0,-0.0012000000000000001,0.029500000000000002,0.0,-0.037,-0.123
1701526055.945,19.609,19.609,-19.609,0.0005,-0.0015,-0.031100000000000003,-0.004,-0.041,-0.116
1701526055.985,19.609,19.609,-19.609,0.0008,-0.0004,0.0322,-0.011,-0.041,-0.108
1701526056.025,19.609,19.609,-19.609,0.0002,0.0,-0.0253,-0.003,-0.043000000000000003,-0.112
1701526056.065,19.609,19.609,-19.609,0.0008,-0.0007,0.0128,-0.003,-0.043000000000000003,-0.117
1701526056.105,19.609,19.609,-19.609,0.0031000000000000003,0.00030000000000000003,-0.004200000000000001,-0.007,-0.04,-0.113
1701526056.145,19.609,19.609,-19.609,0.0018000000000000002,-0.0011,-0.0151,-0.007,-0.046,-0.11800000000000001
1701526056.185,19.609,19.609,-19.609,-0.0009000000000000001,-0.0004,0.0286,-0.002,-0.041,-0.112
1701526056.225,19.609,19.609,-19.609,0.0009000000000000001,0.00030000000000000003,-0.013300000000000001,-0.002,-0.044,-0.111
1701526056.265,19.609,19.609,-19.609,0.0,-0.0018000000000000002,0.028200000000000003,-0.007,-0.046,-0.113
1701526056.305,19.609,19.609,-19.609,-0.00030000000000000003,-0.0019,-0.0117,-0.009000000000000001,-0.042,-0.114
1701526056.345,19.609,19.609,-19.609,-0.0006000000000000001,-0.0017000000000000001,0.006900000000000001,-0.016,-0.041,-0.094
1701526056.385,19.609,19.609,-19.609,0.002,0.0006000000000000001,0.0106,-0.001,-0.038,-0.109
1701526056.425,19.609,19.609,-19.609,-0.0004,-0.0019,-0.0322,0.006,-0.032,-0.125
1701526056.465,19.609,19.609,-19.609,0.0,0.0002,0.0256,-0.012,-0.046,-0.108
1701526056.505,19.609,19.609,-19.609,0.0023,-0.0006000000000000001,-0.0194,-0.029,-0.031,-0.111
1701526056.545,19.609,19.609,-19.609,-0.0002,-0.0014,0.0004,-0.001,-0.043000000000000003,-0.117
1701526056.585,19.609,19.609,-19.609,0.0017000000000000001,-0.0011,0.016,0.003,-0.044,-0.11800000000000001
1701526056.625,19.609,19.609,-19.609,0.001,0.0,-0.0177,-0.019,-0.046,-0.106
1701526056.665,19.609,19.609,-19.609,-0.0014,0.0017000000000000001,0.0211,-0.008,-0.046,-0.116
1701526056.705,19.609,19.609,-19.609,0.0025,-0.0005,-0.032,-0.002,-0.04,-0.116
1701526056.745,19.609,19.609,-19.609,0.0012000000000000001,-0.0008,0.0357,-0.014,-0.036000000000000004,-0.101
1701526056.7849998,19.609,19.609,-19.609,-0.0004,0.0023,-0.019700000000000002,0.029,-0.039,-0.116
1701526056.825,19.609,19.609,-19.609,0.0043,-0.0014,-0.024200000000000003,-0.007,-0.039,-0.117
1701526056.865,19.609,19.609,-19.609,0.0,-0.0009000000000000001,0.0431,-0.011,-0.04,-0.11900000000000001
1701526056.905,19.609,19.609,-19.609,-0.0015,-0.0018000000000000002,-0.0182,-0.009000000000000001,-0.049,-0.12
1701526056.945,19.609,19.609,-19.609,-0.0006000000000000001,-0.002,0.0196,-0.004,-0.047,-0.115
1701526056.985,19.609,19.609,-19.609,-0.0006000000000000001,-0.0015,-0.021400000000000002,-0.007,-0.066,-0.11800000000000001
1701526057.0249999,19.609,19.609,-19.609,-0.00030000000000000003,-0.0001,0.0047,-0.008,-0.046,-0.117
1701526057.065,19.609,19.609,-19.609,-0.0014,-0.0005,0.0112,-0.013000000000000001,-0.044,-0.105
1701526057.105,19.609,19.609,-19.609,-0.0002,-0.0001,-0.007500000000000001,-0.012,-0.052000000000000005,-0.107
1701526057.145,19.609,19.609,-19.609,-0.0014,-0.002,0.0161,0.013000000000000001,-0.048,-0.127
1701526057.185,19.609,19.609,-19.609,-0.0006000000000000001,-0.001,-0.0223,0.0,-0.043000000000000003,-0.122
1701526057.225,19.609,19.609,-19.609,-0.0002,-0.0017000000000000001,-0.033,-0.026000000000000002,-0.039,-0.111
1701526057.2649999,19.609,19.609,-19.609,0.0006000000000000001,-0.0005,0.051300000000000005,-0.006,-0.038,-0.117
1701526057.305,19.609,19.609,-19.609,-0.0009000000000000001,-0.0029000000000000002,-0.018600000000000002,0.0,-0.044,-0.123
1701526057.345,19.609,19.609,-19.609,-0.0014,-0.0005,-0.003,-0.009000000000000001,-0.046,-0.109
1701526057.385,19.609,19.609,-19.609,0.0,-0.0028,0.0137,-0.004,-0.044,-0.116
1701526057.425,19.609,19.609,-19.609,0.0008,-0.001,-0.025900000000000003,0.003,-0.041,-0.117
1701526057.465,19.609,19.609,-19.609,0.004200000000000001,-0.0001,0.034800000000000005,-0.008,-0.039,-0.11
1701526057.5049999,19.609,19.609,-19.609,-0.0016,-0.0002,-0.0351,-0.004,-0.04,-0.111
1701526057.545,19.609,19.609,-19.609,0.0032,-0.0016,0.029900000000000003,-0.004,-0.039,-0.11900000000000001
1701526057.585,19.609,19.609,-19.609,0.0019,-0.0036000000000000003,-0.0323,-0.009000000000000001,-0.05,-0.11900000000000001
1701526057.625,19.609,19.609,-19.609,0.0009000000000000001,-0.0018000000000000002,0.017400000000000002,-0.007,-0.041,-0.116
1701526057.665,19.609,19.609,-19.609,0.0033,0.0004,-0.0267,-0.001,-0.045,-0.121
1701526057.705,19.609,19.609,-19.609,-0.0013000000000000002,-0.0001,0.034300000000000004,-0.003,-0.046,-0.112
1701526057.745,19.609,19.609,-19.609,0.00030000000000000003,-0.0015,-0.0441,0.0,-0.043000000000000003,-0.113
1701526057.785,19.609,19.609,-19.609,0.0001,0.0009000000000000001,0.0465,-0.007,-0.047,-0.11800000000000001
1701526057.825,19.609,19.609,-19.609,0.0002,0.00030000000000000003,-0.0373,-0.007,-0.047,-0.10200000000000001
1701526057.865,19.609,19.609,-19.609,-0.0017000000000000001,-0.0004,0.0275,0.007,-0.044,-0.115
1701526057.905,19.609,19.609,-19.609,-0.0011,0.0002,-0.049300000000000004,0.01,-0.038,-0.123
1701526057.945,19.609,19.609,-19.609,0.00030000000000000003,-0.0012000000000000001,0.061000000000000006,-0.017,-0.044,-0.108
1701526057.985,19.609,19.609,-19.609,0.0007,-0.0021000000000000003,0.026000000000000002,-0.013000000000000001,-0.032,-0.11
1701526058.025,19.609,19.609,-19.609,0.0013000000000000002,-0.0001,-0.0432,0.008,-0.04,-0.124
1701526058.065,19.609,19.609,-19.609,0.0001,0.0007,0.0213,0.003,-0.046,-0.11900000000000001
1701526058.105,19.609,19.609,-19.609,0.0015,-0.0002,0.0155,-0.008,-0.051000000000000004,-0.101
1701526058.145,19.609,19.609,-19.609,0.0012000000000000001,-0.001,-0.020900000000000002,0.01,-0.042,-0.11800000000000001
1701526058.185,19.609,19.609,-19.609,-0.0007,-0.0017000000000000001,0.041600000000000005,0.001,-0.04,-0.114
1701526058.225,19.609,19.609,-19.609,0.0016,-0.0001,-0.051300000000000005,-0.004,-0.05,-0.113
1701526058.265,19.609,19.609,-19.609,0.0005,-0.003,0.0409,0.001,-0.048,-0.116
1701526058.305,19.609,19.609,-19.609,-0.0002,-0.0014,-0.025,-0.003,-0.038,-0.121
1701526058.345,19.609,19.609,-19.609,-0.001,-0.0039000000000000003,0.0234,-0.009000000000000001,-0.042,-0.11
1701526058.385,19.609,19.609,-19.609,-0.002,-0.00030000000000000003,-0.038900000000000004,-0.001,-0.04,-0.114
1701526058.425,19.609,19.609,-19.609,0.001,-0.0026000000000000003,0.0405,0.005,-0.048,-0.11
1701526058.465,19.609,19.609,-19.609,0.0054,-0.001,-0.0227,0.001,-0.044,-0.113
1701526058.505,19.609,19.609,-19.609,-0.0015,-0.001,0.023,0.0,-0.05,-0.11800000000000001
1701526058.545,19.609,19.609,-19.609,-0.0004,0.0004,-0.0307,-0.005,-0.047,-0.109
1701526058.585,19.609,19.609,-19.609,-0.0021000000000000003,-0.0012000000000000001,0.0109,-0.001,-0.045,-0.113
1701526058.625,19.609,19.609,-19.609,0.0023,0.0001,0.012700000000000001,0.007,-0.046,-0.11800000000000001
1701526058.665,19.609,19.609,-19.609,0.0005,-0.0021000000000000003,-0.041600000000000005,-0.003,-0.045,-0.106
1701526058.705,19.609,19.609,-19.609,0.0017000000000000001,0.00030000000000000003,0.0368,-0.014,-0.054,-0.114
1701526058.745,19.609,19.609,-19.609,0.0017000000000000001,-0.0014,-0.0041,-0.003,-0.041,-0.12
1701526058.7849998,19.609,19.609,-19.609,0.0005,0.0,0.0031000000000000003,-0.006,-0.048,-0.115
1701526058.825,19.609,19.609,-19.609,-0.0001,-0.0009000000000000001,-0.0361,0.012,-0.043000000000000003,-0.113
1701526058.865,19.609,19.609,-19.609,0.0009000000000000001,-0.0027,0.007,-0.001,-0.034,-0.116
1701526058.905,19.609,19.609,-19.609,0.0022,-0.0001,0.0183,0.018000000000000002,-0.04,-0.125
1701526058.945,19.609,19.609,-19.609,-0.0001,-0.0012000000000000001,-0.0132,-0.015,-0.036000000000000004,-0.112
1701526058.985,19.609,19.609,-19.609,0.0015,-0.0001,0.0115,-0.008,-0.045,-0.122
1701526059.0249999,19.609,19.609,-19.609,-0.0016,-0.0006000000000000001,0.0089,-0.008,-0.041,-0.112
1701526059.065,19.609,19.609,-19.609,0.0,-0.0008,0.0024000000000000002,-0.013000000000000001,-0.03,-0.115
1701526059.105,19.609,19.609,-19.609,-0.0021000000000000003,-0.0014,-0.028800000000000003,-0.004,-0.04,-0.116
1701526059.145,19.609,19.609,-19.609,-0.0001,-0.0009000000000000001,0.0342,-0.001,-0.039,-0.116
1701526059.185,19.609,19.609,-19.609,0.002,-0.0005,-0.036500000000000005,-0.011,-0.04,-0.113
1701526059.225,19.609,19.609,-19.609,-0.0006000000000000001,-0.0004,0.0415,-0.003,-0.045,-0.112
1701526059.2649999,19.609,19.609,-19.609,-0.0005,0.0021000000000000003,-0.0482,-0.005,-0.049,-0.116
1701526059.305,19.609,19.609,-19.609,0.0,0.0,0.054400000000000004,-0.01,-0.047,-0.101
1701526059.345,19.609,19.609,-19.609,-0.0013000000000000002,0.00030000000000000003,-0.014700000000000001,0.003,-0.038,-0.117
1701526059.385,19.609,19.609,-19.609,-0.0004,-0.0009000000000000001,-0.0437,-0.003,-0.036000000000000004,-0.122
1701526059.425,19.609,19.609,-19.609,-0.0005,-0.0029000000000000002,0.048,-0.021,-0.036000000000000004,-0.10200000000000001
1701526059.465,19.609,19.609,-19.609,-0.0007,-0.0006000000000000001,-0.033800000000000004,-0.017,-0.035,-0.11900000000000001
1701526059.5049999,19.609,19.609,-19.609,0.0009000000000000001,-0.0021000000000000003,0.018600000000000002,0.0,-0.045,-0.131
1701526059.545,19.609,19.609,-19.609,0.0012000000000000001,-0.001,-0.011300000000000001,-0.015,-0.054,-0.111
1701526059.585,19.609,19.609,-19.609,0.001,0.0,-0.002,-0.009000000000000001,-0.04,-0.107
1701526059.625,19.609,19.609,-19.609,0.0,-0.0015,0.006,-0.001,-0.035,-0.117
1701526059.665,19.609,19.609,-19.609,0.0025,0.0001,0.0187,-0.017,-0.034,-0.112
1701526059.705,19.609,19.609,-19.609,0.0013000000000000002,-0.002,-0.0131,-0.014,-0.032,-0.11
1701526059.745,19.609,19.609,-19.609,-0.0004,-0.0031000000000000003,0.0081,0.002,-0.04,-0.11800000000000001
1701526059.785,19.609,19.609,-19.609,0.0028,-0.0025,0.0269,-0.004,-0.042,-0.116
1701526059.825,19.609,19.609,-19.609,0.0008,-0.0025,-0.0267,-0.011,-0.044,-0.111
1701526059.865,19.609,19.609,-19.609,-0.0026000000000000003,0.00030000000000000003,0.033,-0.004,-0.049,-0.11900000000000001
1701526059.905,19.609,19.609,-19.609,-0.0007,0.0002,-0.0291,-0.006,-0.05,-0.115
1701526059.945,19.609,19.609,-19.609,-0.0004,-0.0016,0.0193,-0.001,-0.057,-0.113
1701526059.985,19.609,19.609,-19.609,0.0015,-0.0027,-0.002,-0.003,-0.05,-0.11900000000000001
1701526060.025,19.609,19.609,-19.609,0.0019,0.0014,-0.0194,-0.015,-0.05,-0.114
1701526060.065,19.609,19.609,-19.609,-0.0001,-0.0009000000000000001,0.024900000000000002,0.0,-0.048,-0.099
1701526060.105,19.609,19.609,-19.609,0.0007,-0.0004,-0.0256,0.004,-0.04,-0.121
1701526060.145,19.609,19.609,-19.609,0.0005,-0.0013000000000000002,0.035500000000000004,-0.006,-0.034,-0.126
1701526060.185,19.609,19.609,-19.609,0.0002,0.0014,-0.0376,-0.026000000000000002,-0.035,-0.112
1701526060.225,19.609,19.609,-19.609,0.0018000000000000002,0.0001,0.0308,-0.009000000000000001,-0.015,-0.11800000000000001
1701526060.265,19.609,19.609,-19.609,-0.0006000000000000001,0.0002,-0.0341,0.005,-0.042,-0.126
1701526060.305,19.609,19.609,-19.609,0.0007,-0.0013000000000000002,0.0137,-0.006,-0.036000000000000004,-0.10200000000000001
1701526060.345,19.609,19.609,-19.609,0.0023,-0.0014,-0.040400000000000005,-0.005,-0.043000000000000003,-0.106
1701526060.385,19.609,19.609,-19.609,0.0004,-0.0024000000000000002,0.0543,0.019,-0.04,-0.12
1701526060.425,19.609,19.609,-19.609,-0.0004,0.0,-0.032100000000000004,-0.011,-0.038,-0.105
1701526060.465,19.609,19.609,-19.609,-0.0014,-0.0017000000000000001,0.032100000000000004,-0.006,-0.042,-0.111
1701526060.505,19.609,19.609,-19.609,0.0,-0.0023,-0.0216,0.0,-0.036000000000000004,-0.116
1701526060.545,19.609,19.609,-19.609,0.0017000000000000001,-0.0007,0.027100000000000003,-0.011,-0.045,-0.121
1701526060.585,19.609,19.609,-19.609,0.0007,0.0017000000000000001,-0.040400000000000005,-0.012,-0.043000000000000003,-0.113
1701526060.625,19.609,19.609,-19.609,0.0006000000000000001,0.0018000000000000002,0.0114,0.021,-0.05,-0.116
1701526060.665,19.609,19.609,-19.609,0.002,-0.0005,-0.0166,-0.004,-0.045,-0.11
1701526060.705,19.609,19.609,-19.609,-0.0008,-0.0015,0.0383,0.003,-0.06,-0.109
1701526060.745,19.609,19.609,-19.609,0.0,-0.0014,-0.030600000000000002,-0.002,-0.048,-0.115
1701526060.7849998,19.609,19.609,-19.609,-0.00030000000000000003,-0.0011,0.0155,-0.017,-0.045,-0.115
1701526060.825,19.609,19.609,-19.609,-0.0015,0.0,-0.0053,-0.007,-0.042,-0.107
1701526060.865,19.609,19.609,-19.609,0.0007,-0.0007,0.0129,0.032,-0.035,-0.121
1701526060.905,19.609,19.609,-19.609,0.0014,-0.00030000000000000003,0.0029000000000000002,-0.006,-0.043000000000000003,-0.11900000000000001
1701526060.945,19.609,19.609,-19.609,0.0017000000000000001,0.0004,-0.0083,-0.026000000000000002,-0.039,-0.1
1701526060.985,19.609,19.609,-19.609,0.0009000000000000001,-0.0013000000000000002,0.020200000000000003,-0.004,-0.037,-0.121
1701526061.0249999,19.609,19.609,-19.609,-0.001,-0.00030000000000000003,-0.033,0.003,-0.04,-0.126
1701526061.065,19.609,19.609,-19.609,-0.0013000000000000002,-0.0018000000000000002,0.0396,-0.007,-0.042,-0.10200000000000001
1701526061.105,19.609,19.609,-19.609,-0.002,0.0007,-0.0329,-0.001,-0.044,-0.111
1701526061.145,19.609,19.609,-19.609,-0.0016,-0.0015,0.0137,0.001,-0.034,-0.117
1701526061.185,19.609,19.609,-19.609,0.0001,-0.00030000000000000003,-0.0194,-0.005,-0.046,-0.112
1701526061.225,19.609,19.609,-19.609,0.0005,-0.002,0.0322,0.0,-0.041,-0.116
1701526061.2649999,19.609,19.609,-19.609,0.0001,0.0004,-0.0334,0.004,-0.044,-0.123
1701526061.305,19.609,19.609,-19.609,0.0,-0.0028,0.026600000000000002,-0.005,-0.044,-0.113
1701526061.345,19.609,19.609,-19.609,-0.0004,-0.001,-0.0239,-0.009000000000000001,-0.045,-0.11800000000000001
1701526061.385,19.609,19.609,-19.609,-0.0001,-0.0015,-0.0053,0.011,-0.047,-0.116
1701526061.425,19.609,19.609,-19.609,0.0007,0.00030000000000000003,0.0285,0.0,-0.046,-0.108
1701526061.465,19.609,19.609,-19.609,-0.0007,0.0011,-0.029900000000000003,0.001,-0.052000000000000005,-0.111
1701526061.5049999,19.609,19.609,-19.609,-0.0013000000000000002,-0.00030000000000000003,0.0385,0.006,-0.051000000000000004,-0.114
1701526061.545,19.609,19.609,-19.609,0.0005,0.0006000000000000001,-0.035,-0.006,-0.048,-0.11800000000000001
1701526061.585,19.609,19.609,-19.609,-0.0001,0.0004,0.0234,-0.005,-0.052000000000000005,-0.10200000000000001
1701526061.625,19.609,19.609,-19.609,0.0012000000000000001,-0.0014,0.045700000000000005,0.006,-0.04,-0.122
1701526061.665,19.609,19.609,-19.609,0.0006000000000000001,-0.0002,-0.0012000000000000001,0.006,-0.049,-0.11800000000000001
1701526061.705,19.609,19.609,-19.609,-0.0007,-0.0005,0.0115,-0.013000000000000001,-0.046,-0.106
1701526061.745,19.609,19.609,-19.609,-0.001,-0.00030000000000000003,-0.0105,0.001,-0.04,-0.114
1701526061.785,19.609,19.609,-19.609,-0.0007,-0.0026000000000000003,-0.0013000000000000002,0.002,-0.041,-0.126
1701526061.825,19.609,19.609,-19.609,-0.0007,-0.0006000000000000001,-0.0137,-0.001,-0.049,-0.114
1701526061.865,19.609,19.609,-19.609,0.0029000000000000002,0.0001,0.024900000000000002,-0.007,-0.038,-0.114
1701526061.905,19.609,19.609,-19.609,0.0013000000000000002,-0.0015,-0.031,0.003,-0.038,-0.122
1701526061.945,19.609,19.609,-19.609,0.0021000000000000003,-0.0021000000000000003,0.0341,-0.008,-0.038,-0.113
1701526061.985,19.609,19.609,-19.609,0.0001,-0.0009000000000000001,-0.0378,-0.01,-0.042,-0.124
1701526062.025,19.609,19.609,-19.609,0.0005,-0.0013000000000000002,0.036000000000000004,-0.004,-0.043000000000000003,-0.12
1701526062.065,19.609,19.609,-19.609,-0.0002,-0.0004,-0.0385,0.001,-0.042,-0.117
1701526062.105,19.609,19.609,-19.609,-0.00030000000000000003,0.00030000000000000003,0.0427,-0.009000000000000001,-0.051000000000000004,-0.116
1701526062.145,19.609,19.609,-19.609,-0.0014,-0.0001,-0.0307,-0.004,-0.046,-0.111
1701526062.185,19.609,19.609,-19.609,-0.0006000000000000001,0.0006000000000000001,0.027100000000000003,0.004,-0.051000000000000004,-0.112
1701526062.225,19.609,19.609,-19.609,0.0013000000000000002,0.0002,-0.0257,-0.001,-0.053,-0.114
1701526062.265,19.609,19.609,-19.609,0.0007,0.0021000000000000003,0.031900000000000005,0.007,-0.051000000000000004,-0.127
1701526062.305,19.609,19.609,-19.609,-0.0006000000000000001,0.0004,-0.0251,-0.009000000000000001,-0.061,-0.115
1701526062.345,19.609,19.609,-19.609,-0.00030000000000000003,0.0007,0.0152,-0.007,-0.05,-0.112
1701526062.385,19.609,19.609,-19.609,-0.0009000000000000001,-0.00030000000000000003,-0.012700000000000001,0.002,-0.042,-0.121
1701526062.425,19.609,19.609,-19.609,-0.0017000000000000001,-0.0009000000000000001,0.0019,-0.007,-0.036000000000000004,-0.10400000000000001
1701526062.465,19.609,19.609,-19.609,-0.0007,0.0004,-0.025400000000000002,-0.014,-0.036000000000000004,-0.106
1701526062.505,19.609,19.609,-19.609,-0.0001,0.0001,0.044000000000000004,-0.002,-0.036000000000000004,-0.122
1701526062.545,19.609,19.609,-19.609,0.001,-0.0002,-0.037200000000000004,-0.006,-0.045,-0.117
1701526062.585,19.609,19.609,-19.609,0.0031000000000000003,-0.0009000000000000001,0.0111,-0.017,-0.043000000000000003,-0.113
1701526062.625,19.609,19.609,-19.609,-0.004,0.0,0.0059,0.0,-0.033,-0.122
1701526062.665,19.609,19.609,-19.609,0.0002,0.0,-0.030500000000000003,-0.005,-0.038,-0.115
1701526062.705,19.609,19.609,-19.609,0.003,0.0,0.04,-0.016,-0.032,-0.113
1701526062.745,19.609,19.609,-19.609,-0.0049,0.0012000000000000001,-0.0548,-0.003,-0.042,-0.11900000000000001
1701526062.7849998,19.609,19.609,-19.609,0.0023,-0.0015,0.06520000000000001,-0.005,-0.037,-0.114
1701526062.825,19.609,19.609,-19.609,-0.0017000000000000001,-0.0001,-0.041,-0.007,-0.038,-0.111
1701526062.865,19.609,19.609,-19.609,0.0025,-0.0009000000000000001,0.039400000000000004,-0.001,-0.048,-0.11800000000000001
1701526062.905,19.609,19.609,-19.609,-0.0018000000000000002,-0.0006000000000000001,-0.0148,-0.014,-0.043000000000000003,-0.117
1701526062.945,19.609,19.609,-19.609,0.001,0.0001,0.0115,-0.011,-0.039,-0.113
1701526062.985,19.609,19.609,-19.609,-0.00030000000000000003,-0.0019,-0.0521,-0.008,-0.042,-0.115
1701526063.0249999,19.609,19.609,-19.609,0.0,0.0006000000000000001,0.0441,-0.007,-0.045,-0.122
1701526063.065,19.609,19.609,-19.609,-0.0007,-0.0012000000000000001,-0.0357,-0.015,-0.041,-0.113
1701526063.105,19.609,19.609,-19.609,0.0015,0.0008,0.027200000000000002,-0.003,-0.04,-0.107
1701526063.145,19.609,19.609,-19.609,0.0018000000000000002,-0.0016,-0.0316,0.003,-0.043000000000000003,-0.124
1701526063.185,19.609,19.609,-19.609,-0.0009000000000000001,-0.00030000000000000003,0.0396,-0.012,-0.035,-0.115
1701526063.225,19.609,19.609,-19.609,-0.0004,-0.0014,-0.0429,-0.023,-0.035,-0.107
1701526063.2649999,19.609,19.609,-19.609,-0.001,-0.0006000000000000001,0.015300000000000001,-0.006,-0.034,-0.121
1701526063.305,19.609,19.609,-19.609,-0.0001,0.001,0.0,-0.005,-0.045,-0.121
1701526063.345,19.609,19.609,-19.609,0.0015,-0.002,-0.019100000000000002,-0.011,-0.05,-0.10200000000000001
1701526063.385,19.609,19.609,-19.609,-0.0017000000000000001,-0.0002,0.029,0.001,-0.04,-0.113
1701526063.425,19.609,19.609,-19.609,-0.0009000000000000001,-0.0025,-0.0263,0.001,-0.036000000000000004,-0.12
1701526063.465,19.609,19.609,-19.609,0.0007,-0.0005,-0.025,-0.012,-0.036000000000000004,-0.10400000000000001
1701526063.5049999,19.609,19.609,-19.609,-0.0012000000000000001,-0.0007,0.0427,-0.007,-0.042,-0.11
1701526063.545,19.609,19.609,-19.609,0.0037,-0.0015,-0.0189,0.0,-0.032,-0.113
1701526063.585,19.609,19.609,-19.609,0.0,0.0014,0.0218,-0.013000000000000001,-0.041,-0.111
1701526063.625,19.609,19.609,-19.609,0.002,0.0018000000000000002,-0.0189,-0.014,-0.042,-0.11900000000000001
1701526063.665,19.609,19.609,-19.609,-0.002,-0.0002,0.0227,0.0,-0.045,-0.11800000000000001
1701526063.705,19.609,19.609,-19.609,-0.0016,-0.0019,-0.025400000000000002,-0.007,-0.047,-0.113
1701526063.745,19.609,19.609,-19.609,-0.0012000000000000001,-0.0014,0.022500000000000003,-0.002,-0.058,-0.115
1701526063.785,19.609,19.609,-19.609,-0.0014,-0.0013000000000000002,-0.028,-0.003,-0.048,-0.125
1701526063.825,19.609,19.609,-19.609,-0.0012000000000000001,0.0001,0.0103,-0.011,-0.044,-0.109
1701526063.865,19.609,19.609,-19.609,0.0015,-0.0004,0.018000000000000002,-0.011,-0.046,-0.108
1701526063.905,19.609,19.609,-19.609,0.0011,-0.0015,-0.0161,0.014,-0.039,-0.127
1701526063.945,19.609,19.609,-19.609,-0.00030000000000000003,-0.0015,0.0001,-0.004,-0.041,-0.11800000000000001
1701526063.985,19.609,19.609,-19.609,0.0012000000000000001,-0.0025,-0.009000000000000001,-0.028,-0.035,-0.109
1701526064.025,19.609,19.609,-19.609,-0.0018000000000000002,0.0001,0.028200000000000003,-0.005,-0.03,-0.12
1701526064.065,19.609,19.609,-19.609,-0.001,-0.0011,-0.033100000000000004,0.006,-0.065,-0.128
1701526064.105,19.609,19.609,-19.609,-0.0004,-0.0014,0.036500000000000005,-0.012,-0.043000000000000003,-0.112
1701526064.145,19.609,19.609,-19.609,0.0,-0.0021000000000000003,-0.036500000000000005,-0.006,-0.048,-0.111
1701526064.185,19.609,19.609,-19.609,0.0004,0.0002,0.0339,0.001,-0.073,-0.121
1701526064.225,19.609,19.609,-19.609,-0.0014,-0.0007,-0.031400000000000004,-0.037,-0.042,-0.107
1701526064.265,19.609,19.609,-19.609,-0.0001,-0.0017000000000000001,0.0302,-0.006,-0.038,-0.12
1701526064.305,19.609,19.609,-19.609,-0.0015,-0.0031000000000000003,-0.040600000000000004,-0.001,-0.017,-0.124
1701526064.345,19.609,19.609,-19.609,-0.0005,-0.0014,0.031,-0.004,-0.042,-0.115
1701526064.385,19.609,19.609,-19.609,0.0001,-0.0033,-0.0131,-0.008,-0.046,-0.114
1701526064.425,19.609,19.609,-19.609,0.0015,-0.0029000000000000002,0.0056,-0.008,-0.04,-0.117
1701526064.465,19.609,19.609,-19.609,-0.0004,0.0008,-0.026600000000000002,-0.003,-0.038,-0.114
1701526064.505,19.609,19.609,-19.609,0.0015,-0.0009000000000000001,0.036000000000000004,-0.004,-0.044,-0.117
1701526064.545,19.609,19.609,-19.609,-0.0005,-0.0009000000000000001,-0.0205,-0.004,-0.052000000000000005,-0.122
1701526064.585,19.609,19.609,-19.609,0.0007,-0.0006000000000000001,0.0183,-0.015,-0.049,-0.109
1701526064.625,19.609,19.609,-19.609,0.0025,-0.0015,-0.014400000000000001,0.019,-0.051000000000000004,-0.108
1701526064.665,19.609,19.609,-19.609,0.0014,0.0006000000000000001,0.0253,0.015,-0.043000000000000003,-0.122
1701526064.705,19.609,19.609,-19.609,-0.0021000000000000003,-0.0032,-0.020300000000000002,-0.006,-0.045,-0.115
1701526064.745,19.609,19.609,-19.609,0.0015,0.0004,0.024300000000000002,-0.025,-0.033,-0.106
1701526064.7849998,19.609,19.609,-19.609,0.0005,0.0015,-0.030600000000000002,-0.007,-0.035,-0.12
1701526064.825,19.609,19.609,-19.609,0.0049,-0.0011,0.028900000000000002,0.008,-0.034,-0.125
1701526064.865,19.609,19.609,-19.609,0.0014,-0.0006000000000000001,-0.034,-0.004,-0.05,-0.109
1701526064.905,19.609,19.609,-19.609,-0.0017000000000000001,0.0,0.0313,-0.006,-0.041,-0.109
1701526064.945,19.609,19.609,-19.609,0.0011,-0.0009000000000000001,-0.029900000000000003,0.009000000000000001,-0.038,-0.11900000000000001
1701526064.985,19.609,19.609,-19.609,0.0002,-0.0006000000000000001,0.0119,-0.008,-0.034,-0.112
1701526065.0249999,19.609,19.609,-19.609,-0.0007,0.0,0.0228,-0.009000000000000001,-0.036000000000000004,-0.112
1701526065.065,19.609,19.609,-19.609,0.0004,-0.0014,-0.0106,-0.005,-0.04,-0.117
1701526065.105,19.609,19.609,-19.609,-0.0007,-0.0012000000000000001,0.001,-0.005,-0.045,-0.117
1701526065.145,19.609,19.609,-19.609,0.0021000000000000003,-0.0013000000000000002,-0.027600000000000003,-0.004,-0.05,-0.11800000000000001
1701526065.185,19.609,19.609,-19.609,0.0009000000000000001,0.0007,0.041,-0.003,-0.047,-0.115
1701526065.225,19.609,19.609,-19.609,0.0007,-0.0001,-0.0324,-0.004,-0.048,-0.112
1701526065.2649999,19.609,19.609,-19.609,0.0,-0.0027,-0.0085,-0.004,-0.049,-0.11
1701526065.305,19.609,19.609,-19.609,0.002,-0.002,-0.0115,0.0,-0.058,-0.116
1701526065.345,19.609,19.609,-19.609,-0.0013000000000000002,-0.0028,0.0264,-0.004,-0.051000000000000004,-0.107
1701526065.385,19.609,19.609,-19.609,0.0029000000000000002,-0.0015,-0.0413,0.007,-0.043000000000000003,-0.107
1701526065.425,19.609,19.609,-19.609,0.00030000000000000003,0.0002,0.0363,0.013000000000000001,-0.039,-0.11800000000000001
1701526065.465,19.609,19.609,-19.609,-0.0029000000000000002,-0.0004,-0.0015,-0.006,-0.044,-0.106
1701526065.5049999,19.609,19.609,-19.609,0.002,-0.0021000000000000003,-0.0303,-0.009000000000000001,-0.041,-0.109
1701526065.545,19.609,19.609,-19.609,0.002,-0.0016,0.0371,0.002,-0.04,-0.126
1701526065.585,19.609,19.609,-19.609,0.0001,-0.0017000000000000001,-0.025500000000000002,-0.003,-0.04,-0.113
1701526065.625,19.609,19.609,-19.609,-0.0012000000000000001,-0.0001,0.0126,-0.009000000000000001,-0.054,-0.10400000000000001
1701526065.665,19.609,19.609,-19.609,-0.0002,0.0001,-0.0245,0.007,-0.044,-0.125
1701526065.705,19.609,19.609,-19.609,-0.0035,-0.0023,0.028300000000000002,0.007,-0.047,-0.114
1701526065.745,19.609,19.609,-19.609,-0.0006000000000000001,-0.0008,-0.0302,-0.007,-0.052000000000000005,-0.114
1701526065.785,19.609,19.609,-19.609,-0.0012000000000000001,-0.0006000000000000001,0.0309,-0.003,-0.063,-0.122
1701526065.825,19.609,19.609,-19.609,0.0016,-0.001,-0.016300000000000002,-0.003,-0.045,-0.123
1701526065.865,19.609,19.609,-19.609,0.0,-0.0004,-0.0001,-0.005,-0.043000000000000003,-0.11800000000000001
1701526065.905,19.609,19.609,-19.609,-0.001,0.0,-0.029900000000000003,-0.007,-0.041,-0.109
1701526065.945,19.609,19.609,-19.609,-0.0001,-0.0022,0.0264,-0.007,-0.045,-0.114
1701526065.985,19.609,19.609,-19.609,0.0012000000000000001,-0.0001,-0.0014,0.0,-0.047,-0.12
1701526066.025,19.609,19.609,-19.609,0.0001,-0.0006000000000000001,0.0172,-0.005,-0.062,-0.121
1701526066.065,19.609,19.609,-19.609,0.0002,0.0007,-0.0126,-0.02,-0.051000000000000004,-0.113
1701526066.105,19.609,19.609,-19.609,-0.003,-0.0013000000000000002,0.016800000000000002,-0.011,-0.043000000000000003,-0.109
1701526066.145,19.609,19.609,-19.609,0.0007,-0.0011,-0.0253,-0.012,-0.034,-0.117
1701526066.185,19.609,19.609,-19.609,0.0004,0.0007,0.037200000000000004,-0.008,-0.041,-0.113
1701526066.225,19.609,19.609,-19.609,0.00030000000000000003,0.0007,-0.041100000000000005,-0.024,-0.031,-0.112
1701526066.265,19.609,19.609,-19.609,0.0026000000000000003,-0.0009000000000000001,0.042,-0.009000000000000001,-0.033,-0.112
1701526066.305,19.609,19.609,-19.609,-0.0009000000000000001,0.0006000000000000001,-0.021400000000000002,-0.005,-0.043000000000000003,-0.122
1701526066.345,19.609,19.609,-19.609,0.0011,0.0007,0.006900000000000001,-0.017,-0.04,-0.112
1701526066.385,19.609,19.609,-19.609,-0.002,-0.0013000000000000002,-0.010100000000000001,0.003,-0.038,-0.114
1701526066.425,19.609,19.609,-19.609,0.0019,0.001,0.0246,-0.002,-0.034,-0.114
1701526066.465,19.609,19.609,-19.609,-0.0006000000000000001,-0.0019,-0.0279,-0.011,-0.038,-0.109
1701526066.505,19.609,19.609,-19.609,0.001,-0.0018000000000000002,0.0213,-0.009000000000000001,-0.041,-0.117
1701526066.545,19.609,19.609,-19.609,0.0007,-0.0008,-0.0274,-0.007,-0.04,-0.114
1701526066.585,19.609,19.609,-19.609,0.0008,-0.0011,0.0152,-0.013000000000000001,-0.033,-0.112
1701526066.625,19.609,19.609,-19.609,0.0002,0.0015,-0.0054,-0.008,-0.044,-0.115
1701526066.665,19.609,19.609,-19.609,0.0012000000000000001,-0.0011,0.02,-0.004,-0.035,-0.11
1701526066.705,19.609,19.609,-19.609,0.0024000000000000002,-0.0018000000000000002,-0.0286,-0.011,-0.042,-0.109
1701526066.745,19.609,19.609,-19.609,0.0009000000000000001,-0.0029000000000000002,0.0267,-0.009000000000000001,-0.045,-0.114
1701526066.7849998,19.609,19.609,-19.609,0.0033,0.0011,-0.0352,-0.001,-0.052000000000000005,-0.117
1701526066.825,19.609,19.609,-19.609,0.0006000000000000001,-0.0022,0.037200000000000004,-0.01,-0.05,-0.112
1701526066.865,19.609,19.609,-19.609,0.0031000000000000003,0.0019,-0.038200000000000005,-0.014,-0.043000000000000003,-0.101
1701526066.905,19.609,19.609,-19.609,0.0004,0.0,0.044500000000000005,0.003,-0.035,-0.11800000000000001
1701526066.945,19.609,19.609,-19.609,0.0023,0.0001,-0.0575,-0.006,-0.034,-0.11800000000000001
1701526066.985,19.609,19.609,-19.609,0.0036000000000000003,-0.0006000000000000001,0.0354,-0.026000000000000002,-0.032,-0.105
1701526067.0249999,19.609,19.609,-19.609,-0.0043,0.0,0.0054,-0.019,-0.034,-0.11800000000000001
1701526067.065,19.609,19.609,-19.609,-0.0014,-0.00030000000000000003,-0.0193,-0.003,-0.043000000000000003,-0.123
1701526067.105,19.609,19.609,-19.609,0.0017000000000000001,0.0012000000000000001,-0.0358,-0.01,-0.05,-0.109
1701526067.145,19.609,19.609,-19.609,-0.0009000000000000001,-0.0016,0.0068000000000000005,-0.013000000000000001,-0.041,-0.107
1701526067.185,19.609,19.609,-19.609,0.0001,0.0008,-0.01,0.003,-0.035,-0.11900000000000001
1701526067.225,19.609,19.609,-19.609,-0.00030000000000000003,-0.0027,-0.0118,-0.004,-0.028,-0.11900000000000001
1701526067.2649999,19.609,19.609,-19.609,-0.0006000000000000001,0.0007,0.0223,-0.014,-0.026000000000000002,-0.101
1701526067.305,19.609,19.609,-19.609,-0.0019,-0.0028,-0.012100000000000001,-0.005,-0.027,-0.113
1701526067.345,19.609,19.609,-19.609,0.0025,0.0018000000000000002,-0.00030000000000000003,-0.002,-0.034,-0.115
1701526067.385,19.609,19.609,-19.609,0.0024000000000000002,-0.001,0.0181,-0.014,-0.033,-0.112
1701526067.425,19.609,19.609,-19.609,0.0007,0.0014,-0.0383,-0.015,-0.032,-0.112
1701526067.465,19.609,19.609,-19.609,0.0016,-0.001,0.0431,-0.002,-0.04,-0.109
1701526067.5049999,19.609,19.609,-19.609,-0.0001,-0.0009000000000000001,-0.0184,-0.002,-0.051000000000000004,-0.108
1701526067.545,19.609,19.609,-19.609,0.0014,0.001,0.028,0.0,-0.046,-0.112
1701526067.585,19.609,19.609,-19.609,0.0001,-0.002,-0.0285,-0.015,-0.047,-0.117
1701526067.625,19.609,19.609,-19.609,0.0,-0.0015,0.0273,-0.011,-0.028,-0.10200000000000001
1701526067.665,19.609,19.609,-19.609,-0.0006000000000000001,-0.0019,-0.0181,0.004,-0.045,-0.114
1701526067.705,19.609,19.609,-19.609,0.0018000000000000002,-0.0004,0.0171,-0.001,-0.045,-0.117
1701526067.745,19.609,19.609,-19.609,-0.0006000000000000001,-0.0028,-0.024,-0.024,-0.036000000000000004,-0.106
1701526067.785,19.609,19.609,-19.609,0.003,-0.0004,0.027700000000000002,-0.016,-0.036000000000000004,-0.121
1701526067.825,19.609,19.609,-19.609,-0.0006000000000000001,0.0006000000000000001,-0.029500000000000002,0.012,-0.041,-0.121
1701526067.865,19.609,19.609,-19.609,0.0001,-0.00030000000000000003,0.0066,-0.008,-0.046,-0.112
1701526067.905,19.609,19.609,-19.609,0.0,-0.0002,0.0028,-0.004,-0.05,-0.106
1701526067.945,19.609,19.609,-19.609,0.0002,-0.0034000000000000002,0.0005,0.002,-0.033,-0.122
1701526067.985,19.609,19.609,-19.609,0.0007,-0.0007,-0.0245,-0.002,-0.036000000000000004,-0.114
1701526068.025,19.609,19.609,-19.609,-0.0014,-0.0019,0.0412,-0.012,-0.036000000000000004,-0.11
1701526068.065,19.609,19.609,-19.609,-0.0015,-0.0015,-0.0391,-0.001,-0.049,-0.121
1701526068.105,19.609,19.609,-19.609,0.0007,-0.0028,0.0468,-0.005,-0.043000000000000003,-0.116
1701526068.145,19.609,19.609,-19.609,0.001,-0.0026000000000000003,-0.0471,-0.003,-0.051000000000000004,-0.11800000000000001
1701526068.185,19.609,19.609,-19.609,0.0022,-0.0004,0.049300000000000004,-0.005,-0.053,-0.11900000000000001
1701526068.225,19.609,19.609,-19.609,0.0004,0.00030000000000000003,-0.0114,-0.003,-0.051000000000000004,-0.116
1701526068.265,19.609,19.609,-19.609,0.0017000000000000001,0.0013000000000000002,-0.0222,-0.003,-0.047,-0.106
1701526068.305,19.609,19.609,-19.609,-0.0013000000000000002,-0.0001,0.0177,0.005,-0.053,-0.11800000000000001
1701526068.345,19.609,19.609,-19.609,-0.00030000000000000003,-0.0031000000000000003,0.0164,-0.005,-0.054,-0.11900000000000001
1701526068.385,19.609,19.609,-19.609,0.0029000000000000002,-0.0006000000000000001,-0.0367,-0.012,-0.047,-0.105
1701526068.425,19.609,19.609,-19.609,-0.0002,0.0009000000000000001,0.0046,0.007,-0.037,-0.113
1701526068.465,19.609,19.609,-19.609,-0.0004,-0.0001,-0.0056,0.01,-0.036000000000000004,-0.125
1701526068.505,19.609,19.609,-19.609,-0.00030000000000000003,-0.0008,0.0274,-0.018000000000000002,-0.036000000000000004,-0.114
1701526068.545,19.609,19.609,-19.609,0.0,-0.0017000000000000001,0.0004,-0.017,-0.033,-0.111
1701526068.585,19.609,19.609,-19.609,-0.0006000000000000001,-0.0019,-0.023,0.007,-0.046,-0.128
1701526068.625,19.609,19.609,-19.609,0.0001,-0.0002,0.039400000000000004,-0.001,-0.044,-0.117
1701526068.665,19.609,19.609,-19.609,-0.0019,-0.0001,-0.0253,-0.007,-0.045,-0.10300000000000001
1701526068.705,19.609,19.609,-19.609,-0.0047,-0.0002,0.027,0.008,-0.04,-0.11800000000000001
1701526068.745,19.609,19.609,-19.609,-0.0013000000000000002,-0.0004,-0.0379,0.004,-0.04,-0.115
1701526068.7849998,19.609,19.609,-19.609,0.0021000000000000003,0.0015,0.0378,-0.002,-0.045,-0.11
1701526068.825,19.609,19.609,-19.609,0.0026000000000000003,-0.0015,-0.0379,0.0,-0.045,-0.11800000000000001
1701526068.865,19.609,19.609,-19.609,0.0013000000000000002,-0.0015,0.0385,-0.003,-0.044,-0.123
1701526068.905,19.609,19.609,-19.609,0.00030000000000000003,-0.0012000000000000001,-0.038200000000000005,-0.007,-0.048,-0.111
1701526068.945,19.609,19.609,-19.609,-0.0004,-0.0016,-0.0444,-0.002,-0.05,-0.115
1701526068.985,19.609,19.609,-19.609,-0.0017000000000000001,0.00030000000000000003,0.0051,0.003,-0.047,-0.116
1701526069.0249999,19.609,19.609,-19.609,-0.0001,-0.0014,0.013600000000000001,0.0,-0.047,-0.121
1701526069.065,19.609,19.609,-19.609,0.0018000000000000002,-0.0021000000000000003,-0.013000000000000001,-0.003,-0.059000000000000004,-0.114
1701526069.105,19.609,19.609,-19.609,0.0007,0.0,-0.0346,0.001,-0.054,-0.12
1701526069.145,19.609,19.609,-19.609,0.0004,0.0002,0.0357,-0.009000000000000001,-0.05,-0.111
1701526069.185,19.609,19.609,-19.609,-0.0032,-0.002,-0.0216,-0.003,-0.052000000000000005,-0.109
1701526069.225,19.609,19.609,-19.609,0.0001,0.0002,0.016900000000000002,0.005,-0.041,-0.11900000000000001
1701526069.2649999,19.609,19.609,-19.609,0.0001,0.0,-0.0275,0.0,-0.045,-0.111
1701526069.305,19.609,19.609,-19.609,-0.0017000000000000001,-0.0001,0.01,-0.016,-0.037,-0.112
1701526069.345,19.609,19.609,-19.609,0.0012000000000000001,-0.0026000000000000003,0.0179,0.002,-0.035,-0.127
1701526069.385,19.609,19.609,-19.609,0.0021000000000000003,-0.0005,-0.0344,0.001,-0.047,-0.115
1701526069.425,19.609,19.609,-19.609,0.00030000000000000003,0.0014,0.0253,-0.015,-0.053,-0.116
1701526069.465,19.609,19.609,-19.609,-0.0001,0.0009000000000000001,-0.007500000000000001,0.003,-0.047,-0.124
1701526069.5049999,19.609,19.609,-19.609,0.0006000000000000001,-0.0025,-0.0001,0.003,-0.046,-0.113
1701526069.545,19.609,19.609,-19.609,0.0,-0.0006000000000000001,-0.009300000000000001,-0.007,-0.044,-0.109
1701526069.585,19.609,19.609,-19.609,0.0036000000000000003,-0.0012000000000000001,-0.0055000000000000005,-0.005,-0.046,-0.125
1701526069.625,19.609,19.609,-19.609,-0.001,-0.0016,0.016300000000000002,-0.002,-0.043000000000000003,-0.122
1701526069.665,19.609,19.609,-19.609,0.0001,-0.0001,-0.011600000000000001,-0.005,-0.051000000000000004,-0.11800000000000001
1701526069.705,19.609,19.609,-19.609,-0.0004,-0.0002,0.006200000000000001,0.0,-0.049,-0.117
1701526069.745,19.609,19.609,-19.609,-0.0006000000000000001,-0.0025,0.0102,-0.006,-0.048,-0.115
1701526069.785,19.609,19.609,-19.609,-0.0008,-0.0011,-0.0296,-0.01,-0.042,-0.113
1701526069.825,19.609,19.609,-19.609,-0.0001,-0.0016,0.0304,-0.006,-0.055,-0.116
1701526069.865,19.609,19.609,-19.609,0.0011,0.0,-0.006900000000000001,-0.008,-0.035,-0.115
