timestamp,acc_x,acc_y,acc_z,magn_x,magn_y,magn_z,gyro_x,gyro_y,gyro_z
1701528342.928,19.609,19.609,-19.609,0.0027,0.0025,-0.0001,-0.095,-0.1,-0.058
1701528342.968,19.609,19.609,-19.609,0.0006000000000000001,0.0033,-0.0012000000000000001,-0.066,-0.091,-0.062
1701528343.008,19.609,19.609,-19.609,0.0035,0.0058000000000000005,0.0016,-0.055,-0.091,-0.07200000000000001
1701528343.0479999,19.609,19.609,-19.609,0.003,0.0016,-0.0006000000000000001,-0.023,-0.043000000000000003,-0.097
1701528343.088,19.609,19.609,-19.609,0.0007,0.0039000000000000003,-0.002,-0.017,-0.029,-0.105
1701528343.128,19.609,19.609,-19.609,0.0018000000000000002,0.0026000000000000003,-0.0004,-0.028,0.007,-0.109
1701528343.168,19.609,19.609,-19.609,0.0025,0.0026000000000000003,-0.0014,-0.027,0.0,-0.108
1701528343.208,19.609,19.609,-19.609,-0.0005,0.0014,0.0009000000000000001,-0.024,-0.028,-0.10300000000000001
1701528343.248,19.609,19.609,-19.609,0.0027,0.0027,-0.0183,-0.027,-0.022,-0.10400000000000001
1701528343.2879999,19.609,19.609,-19.609,0.0033,0.005200000000000001,0.0149,-0.015,-0.033,-0.109
1701528343.328,19.609,19.609,-19.609,0.0015,0.0004,0.0166,-0.011,-0.05,-0.11
1701528343.368,19.609,19.609,-19.609,-0.00030000000000000003,0.0004,0.0154,0.015,-0.04,-0.113
1701528343.408,19.609,19.609,-19.609,0.0043,0.004200000000000001,-0.0045000000000000005,0.009000000000000001,-0.021,-0.124
1701528343.448,19.609,19.609,-19.609,0.0022,0.0034000000000000002,-0.002,0.005,-0.015,-0.14100000000000001
1701528343.488,19.609,19.609,-19.609,0.002,0.0037,-0.0032,0.008,-0.017,-0.125
1701528343.5279999,19.609,19.609,-19.609,-0.0006000000000000001,0.0013000000000000002,0.001,0.0,-0.036000000000000004,-0.105
1701528343.568,19.609,19.609,-19.609,-0.0006000000000000001,0.0027,0.003,-0.014,-0.035,-0.10200000000000001
1701528343.608,19.609,19.609,-19.609,-0.0001,-0.0001,-0.004,-0.026000000000000002,-0.036000000000000004,-0.089
1701528343.648,19.609,19.609,-19.609,0.0031000000000000003,0.0026000000000000003,0.0037,-0.011,-0.044,-0.088
1701528343.688,19.609,19.609,-19.609,0.0015,0.0021000000000000003,0.0001,0.0,-0.068,-0.1
1701528343.728,19.609,19.609,-19.609,0.0013000000000000002,0.0027,0.0013000000000000002,0.003,-0.062,-0.096
1701528343.768,19.609,19.609,-19.609,0.0019,0.0036000000000000003,0.0024000000000000002,0.016,-0.062,-0.101
1701528343.808,19.609,19.609,-19.609,0.0005,0.0034000000000000002,0.0017000000000000001,0.0,-0.051000000000000004,-0.101
1701528343.848,19.609,19.609,-19.609,0.0,0.0013000000000000002,-0.0006000000000000001,0.0,-0.06,-0.092
1701528343.888,19.609,19.609,-19.609,0.002,0.0026000000000000003,0.002,-0.023,-0.057,-0.1
1701528343.928,19.609,19.609,-19.609,-0.0001,0.0043,-0.0128,-0.001,-0.06,-0.096
1701528343.968,19.609,19.609,-19.609,-0.0004,0.0007,0.007500000000000001,0.001,-0.062,-0.101
1701528344.008,19.609,19.609,-19.609,0.001,0.0004,-0.0017000000000000001,-0.002,-0.047,-0.105
1701528344.048,19.609,19.609,-19.609,0.0023,0.0018000000000000002,0.0028,0.013000000000000001,-0.054,-0.08600000000000001
1701528344.088,19.609,19.609,-19.609,0.0017000000000000001,0.0029000000000000002,-0.0031000000000000003,0.003,-0.07,-0.089
1701528344.128,19.609,19.609,-19.609,0.0011,0.0015,-0.002,0.0,-0.044,-0.098
1701528344.168,19.609,19.609,-19.609,0.0009000000000000001,0.0043,-0.006900000000000001,-0.005,-0.02,-0.097
1701528344.208,19.609,19.609,-19.609,0.00030000000000000003,0.0,0.0077,-0.025,-0.036000000000000004,-0.088
1701528344.248,19.609,19.609,-19.609,0.0012000000000000001,0.0031000000000000003,0.0004,-0.024,-0.03,-0.08600000000000001
1701528344.288,19.609,19.609,-19.609,0.0,0.0017000000000000001,0.0076,-0.012,-0.024,-0.09
1701528344.328,19.609,19.609,-19.609,0.003,0.0008,0.0031000000000000003,-0.02,-0.024,-0.094
1701528344.368,19.609,19.609,-19.609,0.0014,0.0023,-0.0056,-0.011,-0.035,-0.10300000000000001
1701528344.408,19.609,19.609,-19.609,0.0007,0.0023,0.0064,-0.009000000000000001,-0.034,-0.1
1701528344.448,19.609,19.609,-19.609,0.0024000000000000002,0.0009000000000000001,-0.0016,-0.007,-0.036000000000000004,-0.106
1701528344.488,19.609,19.609,-19.609,0.00030000000000000003,0.0006000000000000001,0.0048000000000000004,-0.005,-0.046,-0.108
1701528344.528,19.609,19.609,-19.609,-0.0016,0.0018000000000000002,0.0025,-0.009000000000000001,-0.043000000000000003,-0.115
1701528344.568,19.609,19.609,-19.609,0.0008,0.0028,0.0014,-0.015,-0.049,-0.109
1701528344.608,19.609,19.609,-19.609,-0.001,0.0014,-0.0026000000000000003,-0.017,-0.044,-0.107
1701528344.648,19.609,19.609,-19.609,-0.001,0.0025,0.0064,-0.02,-0.047,-0.10400000000000001
1701528344.688,19.609,19.609,-19.609,-0.001,0.0025,0.0012000000000000001,-0.015,-0.065,-0.111
1701528344.728,19.609,19.609,-19.609,0.0023,0.0015,0.003,-0.021,-0.055,-0.112
1701528344.768,19.609,19.609,-19.609,0.0032,0.0017000000000000001,0.0012000000000000001,-0.009000000000000001,-0.067,-0.09
1701528344.8079998,19.609,19.609,-19.609,0.0018000000000000002,0.003,-0.0018000000000000002,-0.022,-0.058,-0.10300000000000001
1701528344.848,19.609,19.609,-19.609,-0.001,0.0024000000000000002,0.0029000000000000002,-0.029,-0.05,-0.125
1701528344.888,19.609,19.609,-19.609,0.0019,0.004,0.0004,-0.025,-0.043000000000000003,-0.112
1701528344.928,19.609,19.609,-19.609,0.0016,0.0037,0.006,-0.024,-0.043000000000000003,-0.099
1701528344.968,19.609,19.609,-19.609,0.0017000000000000001,0.0,0.0007,-0.019,-0.028,-0.106
1701528345.008,19.609,19.609,-19.609,0.0004,0.002,0.0019,-0.017,-0.031,-0.112
1701528345.0479999,19.609,19.609,-19.609,0.0026000000000000003,0.0036000000000000003,-0.010100000000000001,-0.016,-0.038,-0.113
1701528345.088,19.609,19.609,-19.609,0.0017000000000000001,0.0017000000000000001,-0.0081,-0.006,-0.046,-0.111
1701528345.128,19.609,19.609,-19.609,0.0027,0.0024000000000000002,0.0218,0.0,-0.038,-0.112
1701528345.168,19.609,19.609,-19.609,0.0032,0.0018000000000000002,0.0032,-0.001,-0.045,-0.111
1701528345.208,19.609,19.609,-19.609,0.00030000000000000003,0.0023,0.007500000000000001,0.002,-0.043000000000000003,-0.11800000000000001
1701528345.248,19.609,19.609,-19.609,0.0028,0.0028,-0.0023,-0.006,-0.051000000000000004,-0.10400000000000001
1701528345.2879999,19.609,19.609,-19.609,0.002,0.0025,-0.0012000000000000001,-0.008,-0.025,-0.097
1701528345.328,19.609,19.609,-19.609,0.0018000000000000002,0.002,-0.003,-0.001,-0.042,-0.098
1701528345.368,19.609,19.609,-19.609,0.0005,0.0028,0.002,0.001,-0.045,-0.088
1701528345.408,19.609,19.609,-19.609,0.0007,0.0021000000000000003,0.0023,-0.002,-0.037,-0.10400000000000001
1701528345.448,19.609,19.609,-19.609,0.0026000000000000003,0.0053,0.0056,0.0,-0.035,-0.098
1701528345.488,19.609,19.609,-19.609,0.0051,0.0013000000000000002,-0.0086,0.006,-0.048,-0.098
1701528345.5279999,19.609,19.609,-19.609,0.0027,0.0034000000000000002,-0.0006000000000000001,-0.004,-0.036000000000000004,-0.10300000000000001
1701528345.568,19.609,19.609,-19.609,0.0026000000000000003,0.0046,0.0004,0.0,-0.021,-0.10400000000000001
1701528345.608,19.609,19.609,-19.609,0.0009000000000000001,0.0013000000000000002,0.00030000000000000003,0.011,-0.025,-0.113
1701528345.648,19.609,19.609,-19.609,0.0014,0.0031000000000000003,0.0015,0.0,-0.001,-0.113
1701528345.688,19.609,19.609,-19.609,0.0006000000000000001,0.0017000000000000001,0.004,0.018000000000000002,-0.032,-0.10400000000000001
1701528345.728,19.609,19.609,-19.609,0.0007,0.0021000000000000003,0.0076,0.003,-0.037,-0.11
1701528345.768,19.609,19.609,-19.609,0.00030000000000000003,0.0023,0.0045000000000000005,0.005,-0.045,-0.106
1701528345.808,19.609,19.609,-19.609,0.0026000000000000003,0.0019,0.0032,0.012,-0.045,-0.101
1701528345.848,19.609,19.609,-19.609,0.0007,0.004200000000000001,0.0004,0.008,-0.034,-0.114
1701528345.888,19.609,19.609,-19.609,0.0067,0.0032,-0.0029000000000000002,0.012,-0.049,-0.112
1701528345.928,19.609,19.609,-19.609,0.0009000000000000001,0.002,0.0023,0.012,-0.035,-0.107
1701528345.968,19.609,19.609,-19.609,0.0009000000000000001,0.0035,0.0006000000000000001,0.009000000000000001,-0.043000000000000003,-0.108
1701528346.008,19.609,19.609,-19.609,0.0029000000000000002,0.001,0.002,0.013000000000000001,-0.051000000000000004,-0.094
1701528346.048,19.609,19.609,-19.609,0.0034000000000000002,0.0019,0.0006000000000000001,0.0,-0.063,-0.091
1701528346.088,19.609,19.609,-19.609,-0.00030000000000000003,0.0028,0.0049,-0.009000000000000001,-0.047,-0.09
1701528346.128,19.609,19.609,-19.609,0.0006000000000000001,0.0031000000000000003,0.0024000000000000002,0.0,-0.047,-0.096
1701528346.168,19.609,19.609,-19.609,0.0017000000000000001,0.006,0.001,0.009000000000000001,-0.046,-0.084
1701528346.208,19.609,19.609,-19.609,0.0019,0.0025,-0.0025,-0.031,-0.032,-0.089
1701528346.248,19.609,19.609,-19.609,0.0033,0.0023,0.0008,0.0,-0.027,-0.098
1701528346.288,19.609,19.609,-19.609,0.002,0.0009000000000000001,0.002,0.0,-0.027,-0.089
1701528346.328,19.609,19.609,-19.609,0.0014,0.0027,0.00030000000000000003,0.003,-0.024,-0.085
1701528346.368,19.609,19.609,-19.609,0.0033,0.0039000000000000003,-0.0073,0.007,-0.012,-0.089
1701528346.408,19.609,19.609,-19.609,0.0014,0.002,-0.0014,0.006,-0.02,-0.094
1701528346.448,19.609,19.609,-19.609,0.0007,0.0036000000000000003,0.0031000000000000003,0.01,-0.021,-0.08700000000000001
1701528346.488,19.609,19.609,-19.609,-0.0008,0.0038,0.0018000000000000002,0.014,-0.035,-0.091
1701528346.528,19.609,19.609,-19.609,0.0015,0.0022,0.0006000000000000001,0.01,-0.033,-0.083
1701528346.568,19.609,19.609,-19.609,0.0018000000000000002,0.0016,0.0023,0.006,-0.027,-0.094
1701528346.608,19.609,19.609,-19.609,0.0025,0.0029000000000000002,-0.001,0.008,-0.029,-0.099
1701528346.648,19.609,19.609,-19.609,0.0018000000000000002,0.0032,0.0064,0.0,-0.036000000000000004,-0.092
1701528346.688,19.609,19.609,-19.609,0.0016,0.002,0.0022,-0.008,-0.039,-0.091
1701528346.728,19.609,19.609,-19.609,0.0029000000000000002,0.0025,-0.0027,-0.006,-0.035,-0.088
1701528346.768,19.609,19.609,-19.609,0.004,0.0027,-0.001,-0.007,-0.039,-0.089
1701528346.8079998,19.609,19.609,-19.609,0.0015,0.0017000000000000001,0.0034000000000000002,-0.017,-0.042,-0.093
1701528346.848,19.609,19.609,-19.609,0.0013000000000000002,0.0036000000000000003,-0.0001,-0.005,-0.037,-0.088
1701528346.888,19.609,19.609,-19.609,0.0023,0.0018000000000000002,0.019700000000000002,0.002,-0.05,-0.077
1701528346.928,19.609,19.609,-19.609,0.00030000000000000003,0.0068000000000000005,-0.0059,0.002,-0.029,-0.098
1701528346.968,19.609,19.609,-19.609,0.0046,0.0011,0.0015,-0.007,-0.029,-0.106
1701528347.008,19.609,19.609,-19.609,0.0036000000000000003,0.0014,0.0032,-0.005,-0.029,-0.10200000000000001
1701528347.0479999,19.609,19.609,-19.609,0.0047,0.0015,0.0041,-0.005,-0.033,-0.098
1701528347.088,19.609,19.609,-19.609,-0.0004,0.0032,-0.0032,-0.009000000000000001,-0.02,-0.098
1701528347.128,19.609,19.609,-19.609,0.0018000000000000002,0.0029000000000000002,0.0014,-0.009000000000000001,-0.031,-0.10400000000000001
1701528347.168,19.609,19.609,-19.609,0.0023,0.0005,0.001,0.005,-0.032,-0.105
1701528347.208,19.609,19.609,-19.609,0.0018000000000000002,0.0021000000000000003,-0.0014,-0.014,-0.027,-0.10400000000000001
1701528347.248,19.609,19.609,-19.609,0.0021000000000000003,0.0044,0.0058000000000000005,-0.008,-0.054,-0.095
1701528347.2879999,19.609,19.609,-19.609,0.0001,0.003,0.001,-0.001,-0.021,-0.097
1701528347.328,19.609,19.609,-19.609,0.0006000000000000001,0.0032,0.0034000000000000002,0.0,-0.04,-0.098
1701528347.368,19.609,19.609,-19.609,-0.0018000000000000002,0.0028,0.0033,-0.001,-0.041,-0.1
1701528347.408,19.609,19.609,-19.609,0.0028,0.0034000000000000002,-0.0015,0.001,-0.04,-0.095
1701528347.448,19.609,19.609,-19.609,0.0,0.0007,-0.0054,-0.002,-0.042,-0.10200000000000001
1701528347.488,19.609,19.609,-19.609,0.0025,0.003,0.0021000000000000003,-0.005,-0.036000000000000004,-0.097
1701528347.5279999,19.609,19.609,-19.609,0.0004,0.0036000000000000003,-0.0009000000000000001,0.0,-0.033,-0.1
1701528347.568,19.609,19.609,-19.609,-0.0008,0.001,0.0045000000000000005,-0.005,-0.037,-0.099
1701528347.608,19.609,19.609,-19.609,0.002,0.0004,-0.0025,0.012,-0.038,-0.089
1701528347.648,19.609,19.609,-19.609,0.0011,0.0028,0.0089,0.003,-0.032,-0.1
1701528347.688,19.609,19.609,-19.609,0.0032,0.0031000000000000003,0.0009000000000000001,0.003,-0.026000000000000002,-0.109
1701528347.728,19.609,19.609,-19.609,0.0017000000000000001,0.0036000000000000003,-0.003,-0.004,-0.054,-0.096
1701528347.768,19.609,19.609,-19.609,0.0015,0.002,-0.0012000000000000001,-0.003,-0.026000000000000002,-0.08700000000000001
1701528347.808,19.609,19.609,-19.609,0.0,0.0043,0.0079,-0.011,-0.034,-0.097
1701528347.848,19.609,19.609,-19.609,0.0025,0.0032,-0.0028,-0.017,-0.032,-0.091
1701528347.888,19.609,19.609,-19.609,0.0025,0.0039000000000000003,-0.0009000000000000001,-0.005,-0.041,-0.08600000000000001
1701528347.928,19.609,19.609,-19.609,0.0044,0.0009000000000000001,0.0001,-0.005,-0.034,-0.097
1701528347.968,19.609,19.609,-19.609,0.002,0.0016,0.0039000000000000003,0.0,-0.04,-0.1
1701528348.008,19.609,19.609,-19.609,0.0014,0.0008,-0.0039000000000000003,-0.013000000000000001,-0.045,-0.09
1701528348.048,19.609,19.609,-19.609,0.0043,0.002,-0.0026000000000000003,0.008,-0.043000000000000003,-0.10200000000000001
1701528348.088,19.609,19.609,-19.609,-0.0023,0.0023,0.0048000000000000004,0.004,-0.039,-0.106
1701528348.128,19.609,19.609,-19.609,0.0008,0.003,-0.0031000000000000003,0.0,-0.046,-0.10400000000000001
1701528348.168,19.609,19.609,-19.609,0.0014,0.0032,0.005,0.0,-0.049,-0.10200000000000001
1701528348.208,19.609,19.609,-19.609,0.0016,0.001,0.0012000000000000001,0.002,-0.046,-0.106
1701528348.248,19.609,19.609,-19.609,-0.0006000000000000001,0.0008,-0.0032,0.005,-0.041,-0.10400000000000001
1701528348.288,19.609,19.609,-19.609,0.0067,0.0037,-0.0014,0.007,-0.049,-0.10400000000000001
1701528348.328,19.609,19.609,-19.609,0.0021000000000000003,0.0025,-0.0007,-0.005,-0.038,-0.105
1701528348.368,19.609,19.609,-19.609,0.0012000000000000001,0.002,-0.0056,0.008,-0.044,-0.097
1701528348.408,19.609,19.609,-19.609,0.0026000000000000003,0.0028,-0.0024000000000000002,0.001,-0.038,-0.10300000000000001
1701528348.448,19.609,19.609,-19.609,-0.0009000000000000001,0.0009000000000000001,0.0038,-0.004,-0.025,-0.114
1701528348.488,19.609,19.609,-19.609,0.0025,0.0023,0.0038,-0.003,-0.032,-0.108
1701528348.528,19.609,19.609,-19.609,0.0,0.0017000000000000001,-0.0018000000000000002,-0.006,-0.033,-0.097
1701528348.568,19.609,19.609,-19.609,0.0057,0.0023,-0.0241,-0.004,-0.034,-0.10200000000000001
1701528348.608,19.609,19.609,-19.609,0.0039000000000000003,0.002,0.0031000000000000003,0.001,-0.037,-0.10400000000000001
1701528348.648,19.609,19.609,-19.609,-0.00030000000000000003,0.0028,0.001,0.002,-0.048,-0.099
1701528348.688,19.609,19.609,-19.609,0.0017000000000000001,0.0019,0.001,0.004,-0.046,-0.109
1701528348.728,19.609,19.609,-19.609,0.0006000000000000001,0.0029000000000000002,-0.0014,0.003,-0.052000000000000005,-0.113
1701528348.768,19.609,19.609,-19.609,-0.0004,0.0031000000000000003,-0.0016,0.004,-0.046,-0.1
1701528348.8079998,19.609,19.609,-19.609,0.0026000000000000003,0.0013000000000000002,-0.0021000000000000003,0.0,-0.042,-0.109
1701528348.848,19.609,19.609,-19.609,0.0026000000000000003,0.0031000000000000003,0.0015,0.0,-0.044,-0.109
1701528348.888,19.609,19.609,-19.609,0.0021000000000000003,0.003,-0.0001,-0.005,-0.048,-0.108
1701528348.928,19.609,19.609,-19.609,0.0034000000000000002,0.0017000000000000001,-0.0014,-0.009000000000000001,-0.05,-0.099
1701528348.968,19.609,19.609,-19.609,0.0038,0.0028,-0.0024000000000000002,-0.013000000000000001,-0.055,-0.101
1701528349.008,19.609,19.609,-19.609,0.0025,0.0023,0.0021000000000000003,-0.01,-0.058,-0.098
1701528349.0479999,19.609,19.609,-19.609,0.0006000000000000001,0.0018000000000000002,-0.0036000000000000003,-0.011,-0.052000000000000005,-0.099
1701528349.088,19.609,19.609,-19.609,0.003,0.0046,0.0037,-0.024,-0.046,-0.10200000000000001
1701528349.128,19.609,19.609,-19.609,0.0011,0.0029000000000000002,-0.00030000000000000003,-0.007,-0.048,-0.08600000000000001
1701528349.168,19.609,19.609,-19.609,-0.00030000000000000003,0.0025,0.0036000000000000003,-0.008,-0.043000000000000003,-0.094
1701528349.208,19.609,19.609,-19.609,-0.0002,0.0023,0.0018000000000000002,-0.015,-0.027,-0.117
1701528349.248,19.609,19.609,-19.609,0.0039000000000000003,0.0029000000000000002,-0.0004,-0.011,-0.032,-0.107
1701528349.2879999,19.609,19.609,-19.609,0.004,0.0026000000000000003,-0.0045000000000000005,-0.012,-0.027,-0.097
1701528349.328,19.609,19.609,-19.609,0.0015,0.0027,-0.0014,-0.008,-0.025,-0.099
1701528349.368,19.609,19.609,-19.609,-0.0012000000000000001,0.0026000000000000003,-0.0017000000000000001,0.0,-0.04,-0.108
1701528349.408,19.609,19.609,-19.609,0.001,0.0019,0.009000000000000001,0.003,-0.041,-0.097
1701528349.448,19.609,19.609,-19.609,-0.0008,0.0004,-0.0027,0.008,-0.036000000000000004,-0.098
1701528349.488,19.609,19.609,-19.609,0.0018000000000000002,0.0032,0.0012000000000000001,-0.001,-0.038,-0.096
1701528349.5279999,19.609,19.609,-19.609,0.0028,0.002,0.0039000000000000003,0.002,-0.036000000000000004,-0.099
1701528349.568,19.609,19.609,-19.609,0.0007,0.0007,-0.0017000000000000001,0.002,-0.031,-0.10400000000000001
1701528349.608,19.609,19.609,-19.609,0.002,0.0023,0.0006000000000000001,-0.002,-0.033,-0.10400000000000001
1701528349.648,19.609,19.609,-19.609,-0.0007,0.0009000000000000001,-0.0039000000000000003,-0.002,-0.032,-0.094
1701528349.688,19.609,19.609,-19.609,0.0012000000000000001,0.0015,-0.0076,-0.006,-0.032,-0.098
1701528349.728,19.609,19.609,-19.609,0.0026000000000000003,0.0017000000000000001,0.0103,-0.008,-0.033,-0.1
1701528349.768,19.609,19.609,-19.609,0.002,0.0015,0.0043,-0.009000000000000001,-0.028,-0.10200000000000001
1701528349.808,19.609,19.609,-19.609,0.0048000000000000004,0.0029000000000000002,0.0026000000000000003,-0.001,-0.037,-0.10300000000000001
1701528349.848,19.609,19.609,-19.609,0.0018000000000000002,0.0023,0.0027,-0.01,-0.04,-0.107
1701528349.888,19.609,19.609,-19.609,-0.0012000000000000001,0.0015,-0.005200000000000001,0.004,-0.043000000000000003,-0.08700000000000001
1701528349.928,19.609,19.609,-19.609,0.0009000000000000001,0.0012000000000000001,0.0034000000000000002,-0.007,-0.037,-0.09
1701528349.968,19.609,19.609,-19.609,0.0041,0.001,-0.0017000000000000001,-0.02,-0.03,-0.111
1701528350.008,19.609,19.609,-19.609,-0.00030000000000000003,0.0057,-0.00030000000000000003,-0.012,-0.033,-0.097
1701528350.048,19.609,19.609,-19.609,0.0038,0.0023,-0.0071,-0.01,-0.034,-0.09
1701528350.088,19.609,19.609,-19.609,0.0016,0.0026000000000000003,0.0039000000000000003,-0.014,-0.018000000000000002,-0.1
1701528350.128,19.609,19.609,-19.609,0.0009000000000000001,0.0024000000000000002,-0.0068000000000000005,-0.008,-0.025,-0.098
1701528350.168,19.609,19.609,-19.609,0.0034000000000000002,0.005,0.0109,-0.005,-0.031,-0.088
1701528350.208,19.609,19.609,-19.609,0.0012000000000000001,0.0021000000000000003,-0.0023,0.002,-0.036000000000000004,-0.093
1701528350.248,19.609,19.609,-19.609,0.0021000000000000003,0.0018000000000000002,0.0011,0.007,-0.037,-0.093
1701528350.288,19.609,19.609,-19.609,0.0004,0.0014,-0.0053,0.009000000000000001,-0.039,-0.095
1701528350.328,19.609,19.609,-19.609,0.00030000000000000003,0.0006000000000000001,0.004200000000000001,0.009000000000000001,-0.035,-0.10200000000000001
1701528350.368,19.609,19.609,-19.609,-0.0009000000000000001,0.0011,0.0145,0.01,-0.041,-0.10300000000000001
1701528350.408,19.609,19.609,-19.609,0.0009000000000000001,0.0007,-0.015600000000000001,0.009000000000000001,-0.037,-0.10400000000000001
1701528350.448,19.609,19.609,-19.609,0.0033,0.002,-0.0057,0.003,-0.043000000000000003,-0.108
1701528350.488,19.609,19.609,-19.609,0.0021000000000000003,0.002,-0.0027,0.006,-0.047,-0.112
1701528350.528,19.609,19.609,-19.609,0.0034000000000000002,0.0034000000000000002,0.0018000000000000002,0.001,-0.043000000000000003,-0.10300000000000001
1701528350.568,19.609,19.609,-19.609,0.0007,0.0011,0.001,-0.001,-0.051000000000000004,-0.098
1701528350.608,19.609,19.609,-19.609,0.0005,0.0014,0.0046,-0.006,-0.053,-0.107
1701528350.648,19.609,19.609,-19.609,0.0015,0.0018000000000000002,-0.0007,0.006,-0.043000000000000003,-0.091
1701528350.688,19.609,19.609,-19.609,0.0038,0.0045000000000000005,0.0055000000000000005,-0.007,-0.021,-0.1
1701528350.728,19.609,19.609,-19.609,0.0014,0.0026000000000000003,-0.007200000000000001,-0.019,-0.015,-0.098
1701528350.768,19.609,19.609,-19.609,0.0053,0.0036000000000000003,-0.0005,-0.009000000000000001,-0.019,-0.088
1701528350.8079998,19.609,19.609,-19.609,0.0014,0.0014,0.0028,-0.01,-0.021,-0.092
1701528350.848,19.609,19.609,-19.609,0.002,0.0011,-0.00030000000000000003,-0.011,-0.033,-0.092
1701528350.888,19.609,19.609,-19.609,0.0018000000000000002,0.0027,0.0142,-0.01,-0.018000000000000002,-0.084
1701528350.928,19.609,19.609,-19.609,0.006500000000000001,0.005200000000000001,-0.0051,-0.009000000000000001,-0.016,-0.08700000000000001
1701528350.968,19.609,19.609,-19.609,0.0006000000000000001,0.0018000000000000002,-0.0086,-0.004,-0.021,-0.089
1701528351.008,19.609,19.609,-19.609,0.0029000000000000002,0.0025,0.0004,0.008,-0.013000000000000001,-0.091
1701528351.0479999,19.609,19.609,-19.609,0.0064,0.003,0.0,0.003,0.0,-0.1
1701528351.088,19.609,19.609,-19.609,0.001,0.0009000000000000001,0.0045000000000000005,0.006,-0.025,-0.095
1701528351.128,19.609,19.609,-19.609,0.003,0.003,0.0009000000000000001,0.001,-0.025,-0.095
1701528351.168,19.609,19.609,-19.609,0.0032,0.0022,0.003,0.006,-0.032,-0.10300000000000001
1701528351.208,19.609,19.609,-19.609,-0.0002,0.0039000000000000003,-0.002,0.006,-0.03,-0.10400000000000001
1701528351.248,19.609,19.609,-19.609,0.0001,0.0028,0.0036000000000000003,0.008,-0.029,-0.1
1701528351.2879999,19.609,19.609,-19.609,0.0005,0.0023,-0.0018000000000000002,-0.005,-0.035,-0.11
1701528351.328,19.609,19.609,-19.609,-0.0018000000000000002,0.001,-0.0057,0.004,-0.036000000000000004,-0.108
1701528351.368,19.609,19.609,-19.609,0.0013000000000000002,0.0031000000000000003,0.0045000000000000005,0.018000000000000002,-0.027,-0.10300000000000001
1701528351.408,19.609,19.609,-19.609,0.0009000000000000001,0.0037,0.004,0.002,-0.027,-0.105
1701528351.448,19.609,19.609,-19.609,0.0007,0.0004,0.001,-0.006,-0.008,-0.106
1701528351.488,19.609,19.609,-19.609,0.005,0.0037,0.0018000000000000002,0.001,-0.027,-0.098
1701528351.5279999,19.609,19.609,-19.609,0.0014,0.0043,-0.0005,-0.002,-0.015,-0.105
1701528351.568,19.609,19.609,-19.609,0.0006000000000000001,0.0035,0.0036000000000000003,-0.004,-0.011,-0.105
1701528351.608,19.609,19.609,-19.609,0.0016,0.0017000000000000001,0.0025,-0.001,-0.032,-0.089
1701528351.648,19.609,19.609,-19.609,0.0025,0.0032,-0.0006000000000000001,0.0,-0.039,-0.089
1701528351.688,19.609,19.609,-19.609,0.0019,0.0025,0.0041,-0.002,-0.035,-0.093
1701528351.728,19.609,19.609,-19.609,0.00030000000000000003,0.0025,-0.0021000000000000003,-0.003,-0.031,-0.084
1701528351.768,19.609,19.609,-19.609,0.0014,0.0023,0.0048000000000000004,0.0,-0.027,-0.08700000000000001
1701528351.808,19.609,19.609,-19.609,-0.0012000000000000001,0.0025,0.0014,-0.002,-0.014,-0.085
1701528351.848,19.609,19.609,-19.609,0.0017000000000000001,0.0023,-0.0001,-0.006,-0.002,-0.079
1701528351.888,19.609,19.609,-19.609,0.0028,0.00030000000000000003,-0.0013000000000000002,-0.002,-0.006,-0.077
1701528351.928,19.609,19.609,-19.609,0.0002,0.0029000000000000002,0.0,0.003,-0.01,-0.08
1701528351.968,19.609,19.609,-19.609,0.0005,0.0006000000000000001,0.0037,0.005,-0.004,-0.084
1701528352.008,19.609,19.609,-19.609,0.0022,0.0018000000000000002,0.0037,0.011,-0.01,-0.08600000000000001
1701528352.048,19.609,19.609,-19.609,0.0015,0.0017000000000000001,-0.0098,-0.001,-0.02,-0.093
1701528352.088,19.609,19.609,-19.609,-0.0009000000000000001,0.0018000000000000002,-0.02,0.015,-0.041,-0.092
1701528352.128,19.609,19.609,-19.609,0.0015,0.0021000000000000003,0.0056,0.022,-0.043000000000000003,-0.098
1701528352.168,19.609,19.609,-19.609,0.0013000000000000002,0.0004,0.0137,0.0,-0.032,-0.106
1701528352.208,19.609,19.609,-19.609,0.0043,0.0031000000000000003,-0.0036000000000000003,-0.005,-0.036000000000000004,-0.113
1701528352.248,19.609,19.609,-19.609,0.0008,0.0007,0.004200000000000001,0.0,-0.048,-0.101
1701528352.288,19.609,19.609,-19.609,0.0015,-0.0004,0.0092,-0.002,-0.052000000000000005,-0.10200000000000001
1701528352.328,19.609,19.609,-19.609,0.0011,0.0036000000000000003,-0.0025,-0.01,-0.055,-0.1
1701528352.368,19.609,19.609,-19.609,0.0004,0.0037,-0.0002,-0.012,-0.054,-0.098
1701528352.408,19.609,19.609,-19.609,0.0004,0.0011,0.0038,-0.017,-0.058,-0.101
1701528352.448,19.609,19.609,-19.609,0.0011,0.0038,-0.0015,0.008,-0.05,-0.108
1701528352.488,19.609,19.609,-19.609,0.00030000000000000003,0.0012000000000000001,0.0083,-0.012,-0.058,-0.098
1701528352.528,19.609,19.609,-19.609,0.0008,0.0031000000000000003,0.004,-0.005,-0.053,-0.10400000000000001
1701528352.568,19.609,19.609,-19.609,0.003,0.0034000000000000002,0.0025,-0.005,-0.049,-0.105
1701528352.608,19.609,19.609,-19.609,0.0019,0.0036000000000000003,0.0006000000000000001,0.002,-0.062,-0.112
1701528352.648,19.609,19.609,-19.609,0.0028,0.0022,-0.0098,-0.003,-0.05,-0.109
1701528352.688,19.609,19.609,-19.609,0.0026000000000000003,0.0018000000000000002,-0.0017000000000000001,0.0,-0.032,-0.10300000000000001
1701528352.728,19.609,19.609,-19.609,0.0034000000000000002,0.0022,0.0039000000000000003,0.002,-0.056,-0.105
1701528352.768,19.609,19.609,-19.609,-0.0009000000000000001,0.0033,0.0007,0.003,-0.062,-0.108
1701528352.8079998,19.609,19.609,-19.609,0.00030000000000000003,0.0012000000000000001,0.0018000000000000002,-0.001,-0.058,-0.10400000000000001
1701528352.848,19.609,19.609,-19.609,0.0,0.0017000000000000001,0.0048000000000000004,0.012,-0.056,-0.1
1701528352.888,19.609,19.609,-19.609,0.0011,0.0032,0.0073,0.01,-0.044,-0.10200000000000001
1701528352.928,19.609,19.609,-19.609,-0.0026000000000000003,0.0043,-0.0021000000000000003,-0.001,-0.032,-0.109
1701528352.968,19.609,19.609,-19.609,-0.0002,0.001,0.0059,0.006,-0.03,-0.1
1701528353.008,19.609,19.609,-19.609,0.0004,0.0032,-0.0092,-0.003,-0.021,-0.10200000000000001
1701528353.0479999,19.609,19.609,-19.609,0.0025,0.0032,0.001,-0.005,-0.023,-0.109
1701528353.088,19.609,19.609,-19.609,0.0015,0.0015,0.0006000000000000001,-0.003,-0.028,-0.091
1701528353.128,19.609,19.609,-19.609,0.0023,0.0034000000000000002,0.00030000000000000003,0.0,-0.03,-0.094
1701528353.168,19.609,19.609,-19.609,0.0028,0.0015,0.005,-0.003,-0.028,-0.10300000000000001
1701528353.208,19.609,19.609,-19.609,0.0016,0.0043,-0.0058000000000000005,-0.004,-0.039,-0.1
1701528353.248,19.609,19.609,-19.609,0.0019,0.0013000000000000002,0.002,-0.006,-0.036000000000000004,-0.097
1701528353.2879999,19.609,19.609,-19.609,0.0036000000000000003,0.0018000000000000002,0.0028,-0.003,-0.043000000000000003,-0.099
1701528353.328,19.609,19.609,-19.609,0.0026000000000000003,0.0016,-0.00030000000000000003,0.0,-0.05,-0.109
1701528353.368,19.609,19.609,-19.609,0.0015,0.0047,0.0064,-0.005,-0.05,-0.10200000000000001
1701528353.408,19.609,19.609,-19.609,-0.0005,0.0036000000000000003,-0.0023,-0.003,-0.055,-0.093
1701528353.448,19.609,19.609,-19.609,0.0012000000000000001,0.0024000000000000002,-0.0046,-0.005,-0.053,-0.10300000000000001
1701528353.488,19.609,19.609,-19.609,0.0012000000000000001,0.0009000000000000001,0.0053,-0.002,-0.058,-0.097
1701528353.5279999,19.609,19.609,-19.609,0.00030000000000000003,0.0022,-0.0029000000000000002,0.001,-0.061,-0.095
1701528353.568,19.609,19.609,-19.609,0.0011,0.0025,0.0008,-0.004,-0.068,-0.11
1701528353.608,19.609,19.609,-19.609,0.0029000000000000002,0.0,-0.0009000000000000001,-0.003,-0.062,-0.095
1701528353.648,19.609,19.609,-19.609,0.0036000000000000003,0.0027,-0.0019,0.006,-0.073,-0.097
1701528353.688,19.609,19.609,-19.609,0.0028,0.002,0.0129,-0.009000000000000001,-0.051000000000000004,-0.111
1701528353.728,19.609,19.609,-19.609,0.0013000000000000002,0.0022,-0.0036000000000000003,-0.01,-0.049,-0.111
1701528353.768,19.609,19.609,-19.609,0.0015,0.0001,-0.0036000000000000003,-0.006,-0.054,-0.1
1701528353.808,19.609,19.609,-19.609,0.0018000000000000002,0.0025,-0.008700000000000001,-0.023,-0.05,-0.1
1701528353.848,19.609,19.609,-19.609,0.0029000000000000002,0.0021000000000000003,0.0002,-0.018000000000000002,-0.047,-0.109
1701528353.888,19.609,19.609,-19.609,0.0014,0.0012000000000000001,0.023100000000000002,-0.009000000000000001,-0.052000000000000005,-0.107
1701528353.928,19.609,19.609,-19.609,0.0026000000000000003,0.0041,0.017,-0.013000000000000001,-0.047,-0.111
1701528353.968,19.609,19.609,-19.609,0.0008,0.0046,0.0025,-0.015,-0.04,-0.112
1701528354.008,19.609,19.609,-19.609,0.001,0.0024000000000000002,0.0024000000000000002,-0.013000000000000001,-0.048,-0.106
1701528354.048,19.609,19.609,-19.609,0.002,0.0004,0.007200000000000001,-0.016,-0.047,-0.10400000000000001
1701528354.088,19.609,19.609,-19.609,0.0004,0.0027,-0.0021000000000000003,-0.011,-0.058,-0.111
1701528354.128,19.609,19.609,-19.609,0.0009000000000000001,0.0007,0.008400000000000001,-0.009000000000000001,-0.043000000000000003,-0.101
1701528354.168,19.609,19.609,-19.609,0.0032,0.0,-0.0017000000000000001,-0.013000000000000001,-0.042,-0.092
1701528354.208,19.609,19.609,-19.609,0.00030000000000000003,0.003,0.0015,-0.008,-0.043000000000000003,-0.096
1701528354.248,19.609,19.609,-19.609,0.0028,0.0036000000000000003,0.0117,-0.014,-0.041,-0.095
1701528354.288,19.609,19.609,-19.609,0.006200000000000001,0.0029000000000000002,0.0029000000000000002,-0.017,-0.032,-0.089
1701528354.328,19.609,19.609,-19.609,0.004200000000000001,0.0024000000000000002,0.0004,0.033,-0.04,-0.095
1701528354.368,19.609,19.609,-19.609,0.0006000000000000001,0.0028,0.0044,-0.011,-0.033,-0.098
1701528354.408,19.609,19.609,-19.609,0.0004,0.002,0.0022,0.002,-0.043000000000000003,-0.095
1701528354.448,19.609,19.609,-19.609,0.0015,0.0025,0.0012000000000000001,0.006,-0.031,-0.088
1701528354.488,19.609,19.609,-19.609,0.0014,0.00030000000000000003,-0.0057,-0.003,-0.019,-0.114
1701528354.528,19.609,19.609,-19.609,0.0021000000000000003,0.0039000000000000003,-0.002,0.0,-0.024,-0.108
1701528354.568,19.609,19.609,-19.609,0.0049,0.0017000000000000001,0.0022,-0.015,-0.022,-0.094
1701528354.608,19.609,19.609,-19.609,0.0022,0.0012000000000000001,0.0016,-0.019,-0.023,-0.10200000000000001
1701528354.648,19.609,19.609,-19.609,0.0029000000000000002,0.0034000000000000002,-0.0037,-0.016,-0.023,-0.11
1701528354.688,19.609,19.609,-19.609,0.0007,0.0019,0.0015,-0.012,0.0,-0.10300000000000001
1701528354.728,19.609,19.609,-19.609,0.0009000000000000001,0.0029000000000000002,0.0043,-0.038,-0.027,-0.10200000000000001
1701528354.768,19.609,19.609,-19.609,0.0028,0.0023,0.0057,-0.023,-0.021,-0.098
1701528354.8079998,19.609,19.609,-19.609,0.0034000000000000002,0.0014,-0.0051,-0.021,-0.032,-0.10200000000000001
1701528354.848,19.609,19.609,-19.609,0.0028,0.0036000000000000003,0.0032,-0.018000000000000002,-0.011,-0.101
1701528354.888,19.609,19.609,-19.609,0.0011,0.001,0.0001,-0.018000000000000002,-0.019,-0.10200000000000001
1701528354.928,19.609,19.609,-19.609,-0.0038,0.0029000000000000002,-0.002,-0.02,-0.019,-0.089
1701528354.968,19.609,19.609,-19.609,0.0023,0.0009000000000000001,0.002,-0.024,-0.017,-0.1
1701528355.008,19.609,19.609,-19.609,-0.0012000000000000001,0.0027,0.0051,-0.019,-0.028,-0.097
1701528355.0479999,19.609,19.609,-19.609,0.0009000000000000001,0.0032,-0.0009000000000000001,-0.013000000000000001,-0.02,-0.092
1701528355.088,19.609,19.609,-19.609,0.0021000000000000003,0.0023,0.0055000000000000005,-0.006,-0.032,-0.098
1701528355.128,19.609,19.609,-19.609,0.0009000000000000001,0.0017000000000000001,0.00030000000000000003,-0.002,-0.038,-0.095
1701528355.168,19.609,19.609,-19.609,0.0018000000000000002,-0.0018000000000000002,0.0007,-0.01,-0.024,-0.097
1701528355.208,19.609,19.609,-19.609,0.0006000000000000001,0.00030000000000000003,0.0027,0.002,-0.04,-0.093
1701528355.248,19.609,19.609,-19.609,0.002,0.003,0.0044,0.0,-0.025,-0.1
1701528355.2879999,19.609,19.609,-19.609,0.0023,0.003,-0.0086,-0.011,-0.01,-0.112
1701528355.328,19.609,19.609,-19.609,0.0017000000000000001,0.0021000000000000003,0.0027,-0.007,-0.026000000000000002,-0.1
1701528355.368,19.609,19.609,-19.609,0.0016,0.0009000000000000001,0.0025,-0.006,-0.025,-0.097
1701528355.408,19.609,19.609,-19.609,0.0014,0.002,0.0015,-0.012,-0.007,-0.097
1701528355.448,19.609,19.609,-19.609,0.003,0.0026000000000000003,-0.0012000000000000001,-0.009000000000000001,-0.027,-0.088
1701528355.488,19.609,19.609,-19.609,0.0038,0.0038,0.0002,-0.008,-0.03,-0.1
1701528355.5279999,19.609,19.609,-19.609,0.0034000000000000002,0.0017000000000000001,-0.0002,-0.014,-0.022,-0.09
1701528355.568,19.609,19.609,-19.609,0.0017000000000000001,0.0033,-0.0054,-0.008,-0.016,-0.091
1701528355.608,19.609,19.609,-19.609,0.0028,0.0051,0.0031000000000000003,-0.003,-0.016,-0.095
1701528355.648,19.609,19.609,-19.609,0.0009000000000000001,0.0016,0.0048000000000000004,0.003,-0.019,-0.10300000000000001
1701528355.688,19.609,19.609,-19.609,0.0032,0.0028,0.014100000000000001,0.004,-0.02,-0.096
1701528355.728,19.609,19.609,-19.609,0.0014,0.0046,-0.006,0.011,-0.022,-0.097
1701528355.768,19.609,19.609,-19.609,0.0011,0.0036000000000000003,0.008400000000000001,0.012,-0.035,-0.10200000000000001
1701528355.808,19.609,19.609,-19.609,0.0001,0.0023,0.002,0.015,-0.042,-0.11
1701528355.848,19.609,19.609,-19.609,0.0028,0.0023,-0.0009000000000000001,0.016,-0.048,-0.101
1701528355.888,19.609,19.609,-19.609,0.00030000000000000003,0.0006000000000000001,0.007200000000000001,0.027,-0.063,-0.10300000000000001
1701528355.928,19.609,19.609,-19.609,0.0013000000000000002,0.0031000000000000003,-0.0017000000000000001,0.011,-0.051000000000000004,-0.107
1701528355.968,19.609,19.609,-19.609,0.0021000000000000003,0.0006000000000000001,-0.0001,0.031,-0.053,-0.091
1701528356.008,19.609,19.609,-19.609,0.001,0.003,0.0005,0.018000000000000002,-0.047,-0.096
1701528356.048,19.609,19.609,-19.609,0.0039000000000000003,0.0014,0.0032,0.013000000000000001,-0.035,-0.10200000000000001
1701528356.088,19.609,19.609,-19.609,0.0031000000000000003,0.0035,0.0008,0.008,-0.031,-0.107
1701528356.128,19.609,19.609,-19.609,0.0012000000000000001,0.0025,0.0057,0.01,-0.036000000000000004,-0.092
1701528356.168,19.609,19.609,-19.609,0.0012000000000000001,0.0017000000000000001,-0.0034000000000000002,0.001,-0.013000000000000001,-0.094
1701528356.208,19.609,19.609,-19.609,0.0023,0.0035,0.0063,0.056,-0.026000000000000002,-0.101
1701528356.248,19.609,19.609,-19.609,0.005,0.00030000000000000003,-0.0011,0.009000000000000001,-0.04,-0.092
1701528356.288,19.609,19.609,-19.609,0.0014,0.001,0.006200000000000001,0.018000000000000002,-0.045,-0.09
1701528356.328,19.609,19.609,-19.609,-0.00030000000000000003,0.0029000000000000002,-0.0002,0.011,-0.039,-0.094
1701528356.368,19.609,19.609,-19.609,0.0014,0.0021000000000000003,-0.00030000000000000003,0.02,-0.046,-0.1
1701528356.408,19.609,19.609,-19.609,0.0015,0.0036000000000000003,0.0044,0.015,-0.039,-0.10400000000000001
1701528356.448,19.609,19.609,-19.609,0.001,0.0037,0.0018000000000000002,0.016,-0.048,-0.107
1701528356.488,19.609,19.609,-19.609,0.0009000000000000001,0.0021000000000000003,-0.0045000000000000005,0.004,-0.041,-0.10300000000000001
1701528356.528,19.609,19.609,-19.609,0.0032,0.001,0.0027,0.01,-0.04,-0.116
1701528356.568,19.609,19.609,-19.609,0.0027,0.0028,-0.0022,0.005,-0.041,-0.108
1701528356.608,19.609,19.609,-19.609,0.00030000000000000003,0.0011,0.0092,-0.001,-0.05,-0.106
1701528356.648,19.609,19.609,-19.609,-0.0001,0.002,0.0061,-0.004,-0.045,-0.109
1701528356.688,19.609,19.609,-19.609,-0.0004,0.0015,-0.0025,-0.001,-0.045,-0.105
1701528356.728,19.609,19.609,-19.609,0.0029000000000000002,0.0029000000000000002,0.0092,0.005,-0.049,-0.096
1701528356.768,19.609,19.609,-19.609,0.0046,0.0022,0.001,0.001,-0.034,-0.10200000000000001
1701528356.8079998,19.609,19.609,-19.609,0.0005,0.0032,-0.0011,-0.001,-0.028,-0.099
1701528356.848,19.609,19.609,-19.609,0.0029000000000000002,0.0017000000000000001,0.0053,0.003,-0.033,-0.092
1701528356.888,19.609,19.609,-19.609,0.0009000000000000001,0.0039000000000000003,-0.003,-0.006,-0.028,-0.097
1701528356.928,19.609,19.609,-19.609,0.0017000000000000001,0.001,-0.007500000000000001,0.005,-0.034,-0.088
1701528356.968,19.609,19.609,-19.609,-0.00030000000000000003,0.002,0.0014,-0.001,-0.032,-0.08600000000000001
1701528357.008,19.609,19.609,-19.609,-0.0016,0.001,0.0058000000000000005,0.005,-0.03,-0.084
1701528357.0479999,19.609,19.609,-19.609,0.0029000000000000002,0.0012000000000000001,-0.0019,0.005,-0.028,-0.083
1701528357.088,19.609,19.609,-19.609,0.0026000000000000003,0.0037,0.0016,0.0,-0.017,-0.082
1701528357.128,19.609,19.609,-19.609,0.004,0.0035,-0.0055000000000000005,0.008,-0.015,-0.088
1701528357.168,19.609,19.609,-19.609,-0.0012000000000000001,0.0027,-0.0025,0.008,-0.018000000000000002,-0.08700000000000001
1701528357.208,19.609,19.609,-19.609,0.0006000000000000001,0.0,0.0038,0.01,-0.012,-0.085
1701528357.248,19.609,19.609,-19.609,0.0024000000000000002,0.0028,-0.0009000000000000001,0.008,-0.012,-0.085
1701528357.2879999,19.609,19.609,-19.609,0.0024000000000000002,0.0015,0.0095,0.007,-0.013000000000000001,-0.08600000000000001
1701528357.328,19.609,19.609,-19.609,0.0028,0.0025,0.0017000000000000001,0.006,-0.012,-0.084
1701528357.368,19.609,19.609,-19.609,0.003,0.0,-0.0057,0.004,-0.015,-0.083
1701528357.408,19.609,19.609,-19.609,0.0007,0.0036000000000000003,-0.008700000000000001,-0.003,-0.015,-0.096
1701528357.448,19.609,19.609,-19.609,0.0021000000000000003,0.0029000000000000002,0.027,0.012,-0.021,-0.085
1701528357.488,19.609,19.609,-19.609,0.0028,0.002,0.004200000000000001,0.005,-0.01,-0.089
1701528357.5279999,19.609,19.609,-19.609,0.0009000000000000001,0.0035,0.0,-0.009000000000000001,-0.012,-0.101
1701528357.568,19.609,19.609,-19.609,0.0022,0.0008,-0.0038,0.001,-0.013000000000000001,-0.096
1701528357.608,19.609,19.609,-19.609,0.0,0.0013000000000000002,-0.003,0.0,-0.016,-0.092
1701528357.648,19.609,19.609,-19.609,-0.0026000000000000003,0.0024000000000000002,0.0064,-0.012,-0.007,-0.093
1701528357.688,19.609,19.609,-19.609,-0.0002,0.0045000000000000005,-0.0022,-0.006,-0.007,-0.095
1701528357.728,19.609,19.609,-19.609,0.0014,0.0032,0.0006000000000000001,-0.005,-0.023,-0.091
1701528357.768,19.609,19.609,-19.609,0.002,0.0,-0.0023,-0.007,-0.025,-0.093
1701528357.808,19.609,19.609,-19.609,0.0011,0.0037,-0.0008,0.0,-0.026000000000000002,-0.091
1701528357.848,19.609,19.609,-19.609,0.0006000000000000001,0.00030000000000000003,-0.0002,0.0,-0.052000000000000005,-0.08600000000000001
1701528357.888,19.609,19.609,-19.609,0.001,0.0002,0.0032,-0.004,-0.032,-0.097
1701528357.928,19.609,19.609,-19.609,0.001,0.0023,0.0001,-0.008,-0.027,-0.094
1701528357.968,19.609,19.609,-19.609,0.0012000000000000001,0.0045000000000000005,-0.0043,-0.01,-0.045,-0.083
1701528358.008,19.609,19.609,-19.609,0.0001,0.0035,0.0009000000000000001,-0.011,-0.05,-0.093
1701528358.048,19.609,19.609,-19.609,0.0015,0.0038,0.0034000000000000002,-0.005,-0.058,-0.098
1701528358.088,19.609,19.609,-19.609,0.0022,0.0013000000000000002,0.0061,0.007,-0.053,-0.101
1701528358.128,19.609,19.609,-19.609,0.003,0.0013000000000000002,-0.005,-0.003,-0.048,-0.10400000000000001
1701528358.168,19.609,19.609,-19.609,0.0049,0.0039000000000000003,-0.0017000000000000001,0.01,-0.054,-0.10200000000000001
1701528358.208,19.609,19.609,-19.609,0.0036000000000000003,0.0007,0.0026000000000000003,0.013000000000000001,-0.053,-0.098
1701528358.248,19.609,19.609,-19.609,0.0025,0.0038,0.0037,0.018000000000000002,-0.029,-0.11800000000000001
1701528358.288,19.609,19.609,-19.609,-0.0021000000000000003,0.0014,0.0015,0.004,-0.029,-0.115
1701528358.328,19.609,19.609,-19.609,0.002,0.0024000000000000002,0.0026000000000000003,0.0,-0.025,-0.106
1701528358.368,19.609,19.609,-19.609,0.0025,0.0018000000000000002,-0.0033,-0.001,-0.025,-0.10300000000000001
1701528358.408,19.609,19.609,-19.609,0.0051,0.0024000000000000002,0.0009000000000000001,0.021,-0.008,-0.113
1701528358.448,19.609,19.609,-19.609,0.00030000000000000003,0.003,0.0012000000000000001,-0.008,-0.027,-0.096
1701528358.488,19.609,19.609,-19.609,0.002,0.0008,-0.0005,-0.004,-0.031,-0.093
1701528358.528,19.609,19.609,-19.609,0.0037,0.0021000000000000003,-0.0017000000000000001,-0.004,-0.023,-0.10200000000000001
1701528358.568,19.609,19.609,-19.609,0.0028,0.0009000000000000001,-0.0014,0.007,-0.041,-0.093
1701528358.608,19.609,19.609,-19.609,0.0028,0.0037,0.0,-0.004,-0.036000000000000004,-0.095
1701528358.648,19.609,19.609,-19.609,0.00030000000000000003,0.0036000000000000003,-0.00030000000000000003,-0.001,-0.038,-0.106
1701528358.688,19.609,19.609,-19.609,-0.0028,0.0013000000000000002,0.0013000000000000002,-0.001,-0.048,-0.10400000000000001
1701528358.728,19.609,19.609,-19.609,0.0015,0.003,0.0043,-0.006,-0.048,-0.098
1701528358.768,19.609,19.609,-19.609,0.0014,0.002,-0.0009000000000000001,-0.005,-0.051000000000000004,-0.10300000000000001
1701528358.8079998,19.609,19.609,-19.609,0.0012000000000000001,0.0,0.0015,-0.01,-0.054,-0.1
1701528358.848,19.609,19.609,-19.609,0.003,0.002,-0.0026000000000000003,-0.005,-0.058,-0.107
1701528358.888,19.609,19.609,-19.609,0.0011,0.0023,0.0021000000000000003,-0.004,-0.06,-0.10400000000000001
1701528358.928,19.609,19.609,-19.609,0.0013000000000000002,0.0021000000000000003,0.0021000000000000003,-0.016,-0.05,-0.099
1701528358.968,19.609,19.609,-19.609,0.0031000000000000003,0.0026000000000000003,0.007200000000000001,-0.006,-0.07,-0.094
1701528359.008,19.609,19.609,-19.609,0.0029000000000000002,0.0025,-0.0043,-0.016,-0.044,-0.10400000000000001
1701528359.0479999,19.609,19.609,-19.609,0.0017000000000000001,0.0018000000000000002,-0.00030000000000000003,-0.022,-0.041,-0.106
1701528359.088,19.609,19.609,-19.609,0.0,0.0015,0.0045000000000000005,-0.009000000000000001,-0.039,-0.10200000000000001
1701528359.128,19.609,19.609,-19.609,0.0029000000000000002,0.0026000000000000003,0.020800000000000003,-0.018000000000000002,-0.042,-0.098
1701528359.168,19.609,19.609,-19.609,0.0031000000000000003,0.0021000000000000003,-0.0019,-0.028,-0.028,-0.107
1701528359.208,19.609,19.609,-19.609,0.0012000000000000001,0.0017000000000000001,0.004200000000000001,-0.008,-0.041,-0.105
1701528359.248,19.609,19.609,-19.609,0.0011,0.0009000000000000001,0.0028,-0.009000000000000001,-0.051000000000000004,-0.105
1701528359.2879999,19.609,19.609,-19.609,0.0023,0.0012000000000000001,0.0005,-0.013000000000000001,-0.029,-0.11900000000000001
1701528359.328,19.609,19.609,-19.609,0.002,0.0033,-0.0001,-0.01,-0.041,-0.108
1701528359.368,19.609,19.609,-19.609,0.0011,0.001,0.0014,-0.008,-0.035,-0.107
1701528359.408,19.609,19.609,-19.609,0.0024000000000000002,0.0049,-0.0033,-0.003,-0.036000000000000004,-0.12
1701528359.448,19.609,19.609,-19.609,0.0008,0.0026000000000000003,0.0,-0.001,-0.033,-0.117
1701528359.488,19.609,19.609,-19.609,0.001,0.0023,0.0017000000000000001,0.0,-0.033,-0.111
1701528359.5279999,19.609,19.609,-19.609,0.0051,0.0011,0.0004,-0.008,-0.03,-0.11
1701528359.568,19.609,19.609,-19.609,0.0019,0.0045000000000000005,0.0036000000000000003,-0.002,-0.034,-0.11
1701528359.608,19.609,19.609,-19.609,0.0,0.004,0.0082,-0.003,-0.032,-0.109
1701528359.648,19.609,19.609,-19.609,0.0009000000000000001,0.0018000000000000002,0.0031000000000000003,-0.006,-0.045,-0.112
1701528359.688,19.609,19.609,-19.609,0.0033,0.002,-0.0088,-0.02,-0.034,-0.10400000000000001
1701528359.728,19.609,19.609,-19.609,0.0036000000000000003,0.0026000000000000003,0.009000000000000001,0.0,-0.03,-0.107
1701528359.768,19.609,19.609,-19.609,0.0022,0.0033,0.0067,-0.004,0.0,-0.1
1701528359.808,19.609,19.609,-19.609,0.0006000000000000001,0.0021000000000000003,-0.0025,-0.013000000000000001,-0.013000000000000001,-0.115
1701528359.848,19.609,19.609,-19.609,-0.0007,0.0023,0.0018000000000000002,-0.007,-0.007,-0.106
1701528359.888,19.609,19.609,-19.609,0.0001,0.0016,0.0049,0.016,-0.027,-0.088
1701528359.928,19.609,19.609,-19.609,0.004200000000000001,0.0029000000000000002,0.0012000000000000001,-0.021,-0.022,-0.097
1701528359.968,19.609,19.609,-19.609,0.0,0.0021000000000000003,-0.004200000000000001,-0.008,-0.023,-0.095
1701528360.008,19.609,19.609,-19.609,0.0015,0.0043,0.0035,-0.003,-0.029,-0.091
1701528360.048,19.609,19.609,-19.609,0.0016,0.0018000000000000002,0.0033,-0.016,-0.022,-0.10200000000000001
1701528360.088,19.609,19.609,-19.609,0.0031000000000000003,0.0021000000000000003,-0.0037,0.001,-0.027,-0.1
1701528360.128,19.609,19.609,-19.609,0.0006000000000000001,0.002,0.0088,0.005,-0.015,-0.093
1701528360.168,19.609,19.609,-19.609,0.0039000000000000003,0.0032,-0.0012000000000000001,0.005,-0.026000000000000002,-0.1
1701528360.208,19.609,19.609,-19.609,-0.0007,0.002,-0.0019,0.009000000000000001,-0.027,-0.098
1701528360.248,19.609,19.609,-19.609,0.001,0.0031000000000000003,-0.0005,0.01,-0.028,-0.1
1701528360.288,19.609,19.609,-19.609,0.0036000000000000003,0.0008,-0.0017000000000000001,0.012,-0.027,-0.094
1701528360.328,19.609,19.609,-19.609,0.0027,0.0021000000000000003,-0.0014,0.008,-0.028,-0.099
1701528360.368,19.609,19.609,-19.609,0.0028,0.0009000000000000001,0.0023,0.007,-0.023,-0.097
1701528360.408,19.609,19.609,-19.609,-0.0008,0.0017000000000000001,-0.0037,0.005,-0.03,-0.094
1701528360.448,19.609,19.609,-19.609,0.0021000000000000003,0.0029000000000000002,-0.0053,0.004,-0.031,-0.092
1701528360.488,19.609,19.609,-19.609,-0.0061,0.002,-0.0098,-0.003,-0.024,-0.1
1701528360.528,19.609,19.609,-19.609,0.0022,0.0009000000000000001,0.0081,0.009000000000000001,-0.029,-0.097
1701528360.568,19.609,19.609,-19.609,0.0008,0.0015,0.0047,0.0,-0.016,-0.096
1701528360.608,19.609,19.609,-19.609,0.002,0.0016,-0.0021000000000000003,-0.007,-0.004,-0.109
1701528360.648,19.609,19.609,-19.609,0.001,0.0037,-0.0006000000000000001,0.006,-0.006,-0.105
1701528360.688,19.609,19.609,-19.609,0.0012000000000000001,0.0037,0.0053,-0.006,-0.009000000000000001,-0.094
1701528360.728,19.609,19.609,-19.609,0.0006000000000000001,0.0046,-0.0015,-0.01,-0.003,-0.099
1701528360.768,19.609,19.609,-19.609,0.0032,0.0004,0.0026000000000000003,-0.009000000000000001,-0.012,-0.099
1701528360.8079998,19.609,19.609,-19.609,0.0025,0.0006000000000000001,0.0026000000000000003,0.0,-0.027,-0.089
1701528360.848,19.609,19.609,-19.609,0.00030000000000000003,0.00030000000000000003,-0.0055000000000000005,0.003,-0.032,-0.093
1701528360.888,19.609,19.609,-19.609,0.0021000000000000003,0.0026000000000000003,-0.0001,-0.004,-0.039,-0.09
1701528360.928,19.609,19.609,-19.609,0.0002,0.0023,-0.0194,0.0,-0.038,-0.085
1701528360.968,19.609,19.609,-19.609,0.0001,0.0008,0.008400000000000001,0.003,-0.036000000000000004,-0.09
1701528361.008,19.609,19.609,-19.609,-0.0004,0.0026000000000000003,0.0025,-0.002,-0.029,-0.094
1701528361.0479999,19.609,19.609,-19.609,0.0022,0.0043,0.0011,-0.002,-0.038,-0.089
1701528361.088,19.609,19.609,-19.609,0.0008,0.0021000000000000003,-0.0061,0.0,-0.035,-0.089
1701528361.128,19.609,19.609,-19.609,0.0,0.0027,0.0026000000000000003,-0.005,-0.043000000000000003,-0.095
1701528361.168,19.609,19.609,-19.609,0.0,0.0029000000000000002,0.0034000000000000002,-0.003,-0.043000000000000003,-0.095
1701528361.208,19.609,19.609,-19.609,0.001,0.0023,0.0001,-0.002,-0.039,-0.093
1701528361.248,19.609,19.609,-19.609,0.0,0.0043,-0.0005,-0.008,-0.035,-0.101
1701528361.2879999,19.609,19.609,-19.609,-0.0009000000000000001,0.0017000000000000001,-0.0114,-0.004,-0.033,-0.10200000000000001
1701528361.328,19.609,19.609,-19.609,0.0039000000000000003,0.0009000000000000001,0.0055000000000000005,0.018000000000000002,-0.025,-0.09
1701528361.368,19.609,19.609,-19.609,0.0021000000000000003,0.0023,0.0012000000000000001,0.002,-0.022,-0.10300000000000001
1701528361.408,19.609,19.609,-19.609,-0.0006000000000000001,0.0026000000000000003,0.0,-0.01,-0.014,-0.10400000000000001
1701528361.448,19.609,19.609,-19.609,-0.0001,0.004,0.0068000000000000005,0.004,-0.033,-0.096
1701528361.488,19.609,19.609,-19.609,0.0009000000000000001,0.0034000000000000002,-0.0008,-0.004,-0.025,-0.095
1701528361.5279999,19.609,19.609,-19.609,-0.0001,0.0006000000000000001,0.0016,0.0,-0.015,-0.097
1701528361.568,19.609,19.609,-19.609,0.0008,0.0021000000000000003,-0.001,0.0,-0.024,-0.10400000000000001
1701528361.608,19.609,19.609,-19.609,0.002,0.0032,0.0094,-0.003,-0.025,-0.096
1701528361.648,19.609,19.609,-19.609,0.004,0.0032,-0.004,0.003,-0.03,-0.093
1701528361.688,19.609,19.609,-19.609,0.0022,0.0011,-0.003,0.008,-0.038,-0.092
1701528361.728,19.609,19.609,-19.609,0.0015,0.0036000000000000003,-0.007,0.011,-0.013000000000000001,-0.098
1701528361.768,19.609,19.609,-19.609,0.0023,0.0039000000000000003,0.0043,0.003,-0.041,-0.109
1701528361.808,19.609,19.609,-19.609,0.0025,0.0027,-0.001,0.0,-0.044,-0.109
1701528361.848,19.609,19.609,-19.609,0.0032,0.0028,0.0005,0.008,-0.051000000000000004,-0.10300000000000001
1701528361.888,19.609,19.609,-19.609,0.003,0.0031000000000000003,0.0016,0.024,-0.055,-0.106
1701528361.928,19.609,19.609,-19.609,0.0008,0.0017000000000000001,-0.0004,0.039,-0.052000000000000005,-0.106
1701528361.968,19.609,19.609,-19.609,0.0021000000000000003,0.0016,-0.0009000000000000001,0.003,-0.059000000000000004,-0.10300000000000001
1701528362.008,19.609,19.609,-19.609,0.0033,0.0029000000000000002,0.0002,0.005,-0.096,-0.098
1701528362.048,19.609,19.609,-19.609,0.0032,0.0045000000000000005,0.0047,0.003,-0.08700000000000001,-0.106
1701528362.088,19.609,19.609,-19.609,0.0026000000000000003,0.0015,-0.004,0.014,-0.061,-0.08700000000000001
1701528362.128,19.609,19.609,-19.609,0.0026000000000000003,0.0034000000000000002,-0.005200000000000001,-0.002,-0.061,-0.097
1701528362.168,19.609,19.609,-19.609,0.004200000000000001,0.0015,0.0048000000000000004,-0.003,-0.041,-0.107
1701528362.208,19.609,19.609,-19.609,0.0014,0.0017000000000000001,0.0011,-0.005,-0.051000000000000004,-0.096
1701528362.248,19.609,19.609,-19.609,0.0023,0.0002,-0.004,-0.009000000000000001,-0.052000000000000005,-0.096
1701528362.288,19.609,19.609,-19.609,0.0013000000000000002,0.0004,0.0076,-0.004,-0.043000000000000003,-0.109
1701528362.328,19.609,19.609,-19.609,0.001,0.0017000000000000001,-0.0007,-0.01,-0.054,-0.10300000000000001
1701528362.368,19.609,19.609,-19.609,0.0029000000000000002,0.0033,0.0001,-0.012,-0.055,-0.10200000000000001
1701528362.408,19.609,19.609,-19.609,0.0006000000000000001,0.0025,0.0152,-0.007,-0.058,-0.10200000000000001
1701528362.448,19.609,19.609,-19.609,-0.0001,0.001,-0.0001,-0.005,-0.056,-0.105
1701528362.488,19.609,19.609,-19.609,0.002,0.0018000000000000002,-0.00030000000000000003,-0.008,-0.051000000000000004,-0.107
1701528362.528,19.609,19.609,-19.609,0.0023,0.0025,0.004,-0.006,-0.06,-0.10300000000000001
1701528362.568,19.609,19.609,-19.609,0.002,0.0012000000000000001,-0.0015,-0.006,-0.046,-0.106
1701528362.608,19.609,19.609,-19.609,0.00030000000000000003,0.0034000000000000002,-0.0012000000000000001,-0.007,-0.053,-0.107
1701528362.648,19.609,19.609,-19.609,-0.0001,0.0025,-0.017400000000000002,-0.005,-0.057,-0.10300000000000001
1701528362.688,19.609,19.609,-19.609,0.0009000000000000001,0.002,-0.0028,-0.005,-0.063,-0.098
1701528362.728,19.609,19.609,-19.609,0.0014,0.0043,0.0112,-0.004,-0.058,-0.101
1701528362.768,19.609,19.609,-19.609,0.0011,0.0018000000000000002,0.0014,-0.004,-0.051000000000000004,-0.10200000000000001
1701528362.8079998,19.609,19.609,-19.609,0.0026000000000000003,0.0059,-0.0057,0.0,-0.052000000000000005,-0.098
1701528362.848,19.609,19.609,-19.609,0.00030000000000000003,0.0032,-0.0044,0.002,-0.056,-0.084
1701528362.888,19.609,19.609,-19.609,0.0017000000000000001,0.0026000000000000003,0.005,-0.006,-0.04,-0.1
1701528362.928,19.609,19.609,-19.609,-0.0014,0.0008,-0.0049,-0.005,-0.035,-0.1
1701528362.968,19.609,19.609,-19.609,0.0017000000000000001,0.0035,0.0041,-0.001,-0.049,-0.08700000000000001
1701528363.008,19.609,19.609,-19.609,0.002,0.0008,-0.0002,-0.003,-0.046,-0.095
1701528363.0479999,19.609,19.609,-19.609,-0.0002,0.0021000000000000003,0.0006000000000000001,-0.008,-0.049,-0.095
1701528363.088,19.609,19.609,-19.609,0.0022,0.0027,-0.0001,-0.001,-0.048,-0.088
1701528363.128,19.609,19.609,-19.609,0.0031000000000000003,0.0024000000000000002,0.002,-0.006,-0.051000000000000004,-0.089
1701528363.168,19.609,19.609,-19.609,0.0019,0.0014,0.0006000000000000001,-0.011,-0.04,-0.097
1701528363.208,19.609,19.609,-19.609,0.0016,0.0007,-0.0025,-0.01,-0.038,-0.088
1701528363.248,19.609,19.609,-19.609,0.0043,0.0029000000000000002,0.0022,0.014,-0.039,-0.09
1701528363.2879999,19.609,19.609,-19.609,0.0011,0.0025,-0.0025,-0.009000000000000001,-0.031,-0.092
1701528363.328,19.609,19.609,-19.609,0.0009000000000000001,0.0018000000000000002,-0.0009000000000000001,-0.009000000000000001,-0.028,-0.092
1701528363.368,19.609,19.609,-19.609,0.0022,0.0023,0.0011,-0.003,-0.035,-0.084
1701528363.408,19.609,19.609,-19.609,0.0025,0.0014,0.0007,-0.008,-0.028,-0.091
1701528363.448,19.609,19.609,-19.609,0.0032,0.0022,-0.0008,-0.001,-0.025,-0.084
1701528363.488,19.609,19.609,-19.609,0.0034000000000000002,0.0055000000000000005,0.0006000000000000001,0.0,-0.028,-0.092
1701528363.5279999,19.609,19.609,-19.609,0.002,0.0056,-0.0001,0.0,-0.03,-0.106
1701528363.568,19.609,19.609,-19.609,0.0033,0.0004,0.0045000000000000005,0.002,-0.03,-0.095
1701528363.608,19.609,19.609,-19.609,0.00030000000000000003,0.0023,-0.0041,0.006,-0.06,-0.091
1701528363.648,19.609,19.609,-19.609,0.0001,0.0026000000000000003,0.0043,-0.044,-0.008,-0.098
1701528363.688,19.609,19.609,-19.609,0.0026000000000000003,0.003,0.0005,-0.004,-0.009000000000000001,-0.105
1701528363.728,19.609,19.609,-19.609,0.0034000000000000002,0.0037,-0.008,-0.009000000000000001,-0.044,-0.098
1701528363.768,19.609,19.609,-19.609,0.0023,0.0018000000000000002,0.007,-0.02,-0.015,-0.094
1701528363.808,19.609,19.609,-19.609,0.0001,0.0025,0.0032,-0.015,-0.007,-0.101
1701528363.848,19.609,19.609,-19.609,0.0015,0.0015,-0.00030000000000000003,-0.014,-0.025,-0.099
1701528363.888,19.609,19.609,-19.609,0.0017000000000000001,0.0016,-0.0021000000000000003,-0.011,-0.037,-0.097
1701528363.928,19.609,19.609,-19.609,0.0009000000000000001,0.0016,-0.0015,-0.013000000000000001,-0.029,-0.1
1701528363.968,19.609,19.609,-19.609,0.0034000000000000002,0.0023,0.0058000000000000005,-0.003,-0.036000000000000004,-0.10400000000000001
1701528364.008,19.609,19.609,-19.609,0.0,0.0041,0.0025,-0.009000000000000001,-0.032,-0.099
1701528364.048,19.609,19.609,-19.609,0.0057,0.0048000000000000004,-0.0053,-0.01,-0.034,-0.109
1701528364.088,19.609,19.609,-19.609,0.0021000000000000003,0.0004,0.001,-0.01,-0.027,-0.106
1701528364.128,19.609,19.609,-19.609,0.0015,0.004200000000000001,0.0019,-0.008,-0.037,-0.101
1701528364.168,19.609,19.609,-19.609,0.0031000000000000003,0.0022,-0.0036000000000000003,-0.01,-0.035,-0.112
1701528364.208,19.609,19.609,-19.609,0.0026000000000000003,0.0019,0.0014,-0.006,-0.037,-0.108
1701528364.248,19.609,19.609,-19.609,0.0023,0.0015,-0.0006000000000000001,-0.006,-0.037,-0.10400000000000001
1701528364.288,19.609,19.609,-19.609,0.0005,0.0017000000000000001,0.0031000000000000003,-0.004,-0.046,-0.11
1701528364.328,19.609,19.609,-19.609,0.0025,0.0031000000000000003,-0.0151,-0.012,-0.034,-0.108
1701528364.368,19.609,19.609,-19.609,-0.0004,0.0015,-0.0039000000000000003,-0.003,-0.038,-0.096
1701528364.408,19.609,19.609,-19.609,-0.0001,0.0029000000000000002,-0.0134,-0.003,-0.031,-0.097
1701528364.448,19.609,19.609,-19.609,0.0032,0.0017000000000000001,0.0061,-0.009000000000000001,-0.015,-0.114
1701528364.488,19.609,19.609,-19.609,0.00030000000000000003,0.0007,0.0068000000000000005,-0.008,-0.025,-0.106
1701528364.528,19.609,19.609,-19.609,0.0006000000000000001,0.0017000000000000001,0.0006000000000000001,-0.01,-0.027,-0.097
1701528364.568,19.609,19.609,-19.609,0.0002,0.0008,-0.0047,-0.01,-0.03,-0.105
1701528364.608,19.609,19.609,-19.609,0.0,0.0037,0.0068000000000000005,-0.006,-0.025,-0.10200000000000001
1701528364.648,19.609,19.609,-19.609,0.0039000000000000003,0.0018000000000000002,0.0025,0.0,-0.036000000000000004,-0.1
1701528364.688,19.609,19.609,-19.609,0.001,0.0017000000000000001,-0.0114,-0.006,-0.025,-0.10300000000000001
1701528364.728,19.609,19.609,-19.609,0.0023,0.0043,0.0001,-0.008,-0.025,-0.101
1701528364.768,19.609,19.609,-19.609,0.0017000000000000001,0.0002,0.0067,-0.004,-0.037,-0.098
1701528364.8079998,19.609,19.609,-19.609,0.0025,0.0028,-0.0048000000000000004,-0.003,-0.032,-0.10300000000000001
1701528364.848,19.609,19.609,-19.609,0.0014,0.0027,0.0017000000000000001,-0.008,-0.041,-0.10200000000000001
1701528364.888,19.609,19.609,-19.609,0.0013000000000000002,0.002,0.0027,-0.004,-0.036000000000000004,-0.099
1701528364.928,19.609,19.609,-19.609,0.0021000000000000003,0.0015,-0.0005,-0.006,-0.038,-0.098
1701528364.968,19.609,19.609,-19.609,0.002,0.0022,0.0012000000000000001,-0.002,-0.047,-0.098
1701528365.008,19.609,19.609,-19.609,0.001,-0.0009000000000000001,0.0022,-0.003,-0.041,-0.097
1701528365.0479999,19.609,19.609,-19.609,0.00030000000000000003,0.0011,0.0097,-0.003,-0.045,-0.094
1701528365.088,19.609,19.609,-19.609,0.0005,0.0014,0.0002,-0.004,-0.035,-0.096
1701528365.128,19.609,19.609,-19.609,0.0016,0.0023,0.0005,-0.004,-0.037,-0.098
1701528365.168,19.609,19.609,-19.609,0.0032,0.0019,-0.0051,0.011,-0.056,-0.097
1701528365.208,19.609,19.609,-19.609,0.0023,0.0021000000000000003,0.0012000000000000001,-0.002,-0.028,-0.099
1701528365.248,19.609,19.609,-19.609,0.0009000000000000001,0.0036000000000000003,0.0041,-0.007,0.003,-0.106
1701528365.2879999,19.609,19.609,-19.609,0.0034000000000000002,0.0025,0.0023,-0.004,-0.022,-0.091
1701528365.328,19.609,19.609,-19.609,0.0008,0.0023,0.0076,-0.006,-0.015,-0.088
1701528365.368,19.609,19.609,-19.609,0.0021000000000000003,0.0036000000000000003,-0.002,-0.007,-0.012,-0.091
1701528365.408,19.609,19.609,-19.609,0.0004,0.0031000000000000003,0.004200000000000001,0.011,-0.029,-0.08600000000000001
1701528365.448,19.609,19.609,-19.609,0.0026000000000000003,0.0037,-0.0046,-0.004,-0.021,-0.09
1701528365.488,19.609,19.609,-19.609,0.0014,0.0053,-0.010400000000000001,-0.022,-0.012,-0.092
1701528365.5279999,19.609,19.609,-19.609,0.002,0.0029000000000000002,0.0178,0.002,-0.033,-0.089
1701528365.568,19.609,19.609,-19.609,0.0009000000000000001,0.0037,0.0033,0.001,-0.034,-0.09
1701528365.608,19.609,19.609,-19.609,0.0016,0.0025,0.0076,-0.001,-0.029,-0.099
1701528365.648,19.609,19.609,-19.609,0.0008,0.0036000000000000003,-0.010700000000000001,0.006,-0.031,-0.092
1701528365.688,19.609,19.609,-19.609,0.0006000000000000001,0.0027,-0.0026000000000000003,0.01,-0.036000000000000004,-0.096
1701528365.728,19.609,19.609,-19.609,0.002,0.0016,0.0009000000000000001,0.003,-0.041,-0.10200000000000001
1701528365.768,19.609,19.609,-19.609,0.0014,0.0028,0.0022,0.001,-0.045,-0.1
1701528365.808,19.609,19.609,-19.609,0.0005,0.0021000000000000003,0.0019,0.0,-0.045,-0.101
1701528365.848,19.609,19.609,-19.609,0.0029000000000000002,0.0039000000000000003,0.0009000000000000001,-0.002,-0.045,-0.10300000000000001
1701528365.888,19.609,19.609,-19.609,0.0004,0.0024000000000000002,0.0037,-0.01,-0.043000000000000003,-0.10400000000000001
1701528365.928,19.609,19.609,-19.609,0.0014,0.0036000000000000003,0.0012000000000000001,0.007,-0.044,-0.097
1701528365.968,19.609,19.609,-19.609,0.0026000000000000003,0.0014,0.0004,-0.004,-0.047,-0.1
1701528366.008,19.609,19.609,-19.609,0.0043,0.0011,-0.0009000000000000001,-0.011,-0.024,-0.112
1701528366.048,19.609,19.609,-19.609,0.0035,0.0013000000000000002,-0.0015,-0.009000000000000001,-0.021,-0.11
1701528366.088,19.609,19.609,-19.609,0.0013000000000000002,0.0036000000000000003,-0.0017000000000000001,-0.008,-0.029,-0.094
1701528366.128,19.609,19.609,-19.609,0.0015,0.0023,0.0102,-0.013000000000000001,-0.034,-0.1
1701528366.168,19.609,19.609,-19.609,0.0031000000000000003,0.0035,-0.007500000000000001,-0.005,-0.034,-0.1
1701528366.208,19.609,19.609,-19.609,0.0031000000000000003,0.0013000000000000002,-0.0239,0.005,-0.038,-0.097
1701528366.248,19.609,19.609,-19.609,0.0002,-0.0001,0.0238,0.0,-0.041,-0.1
1701528366.288,19.609,19.609,-19.609,0.0,0.0006000000000000001,0.0053,-0.002,-0.037,-0.106
1701528366.328,19.609,19.609,-19.609,0.0018000000000000002,0.0028,-0.0048000000000000004,0.006,-0.044,-0.095
1701528366.368,19.609,19.609,-19.609,0.0019,0.0034000000000000002,0.0037,0.005,-0.033,-0.1
1701528366.408,19.609,19.609,-19.609,0.002,0.0029000000000000002,0.0012000000000000001,-0.001,-0.027,-0.101
1701528366.448,19.609,19.609,-19.609,0.0024000000000000002,0.0,0.0011,0.003,-0.032,-0.097
1701528366.488,19.609,19.609,-19.609,0.0016,0.0023,0.0044,-0.002,-0.038,-0.098
1701528366.528,19.609,19.609,-19.609,0.0023,0.004,0.0007,0.001,-0.033,-0.101
1701528366.568,19.609,19.609,-19.609,0.0004,0.0018000000000000002,0.007200000000000001,-0.011,-0.037,-0.091
1701528366.608,19.609,19.609,-19.609,0.00030000000000000003,0.0016,0.0004,0.003,-0.04,-0.098
1701528366.648,19.609,19.609,-19.609,0.0017000000000000001,0.0001,0.0007,-0.007,-0.038,-0.115
1701528366.688,19.609,19.609,-19.609,0.004200000000000001,0.0018000000000000002,-0.0032,0.001,-0.039,-0.10200000000000001
1701528366.728,19.609,19.609,-19.609,0.001,0.0045000000000000005,0.0039000000000000003,0.008,-0.055,-0.099
1701528366.768,19.609,19.609,-19.609,0.0009000000000000001,0.0036000000000000003,-0.006500000000000001,-0.004,-0.033,-0.109
1701528366.8079998,19.609,19.609,-19.609,0.002,0.0029000000000000002,0.007200000000000001,-0.008,-0.036000000000000004,-0.109
1701528366.848,19.609,19.609,-19.609,-0.0009000000000000001,0.0025,0.0034000000000000002,-0.003,-0.041,-0.1
1701528366.888,19.609,19.609,-19.609,0.0032,0.0048000000000000004,0.0011,-0.008,-0.054,-0.109
1701528366.928,19.609,19.609,-19.609,0.001,0.0022,0.0041,-0.005,-0.049,-0.1
1701528366.968,19.609,19.609,-19.609,0.0006000000000000001,0.0045000000000000005,-0.0007,-0.012,-0.051000000000000004,-0.093
1701528367.008,19.609,19.609,-19.609,0.0028,0.0,0.0018000000000000002,-0.013000000000000001,-0.043000000000000003,-0.092
1701528367.0479999,19.609,19.609,-19.609,0.0008,0.002,0.0029000000000000002,-0.001,-0.047,-0.093
1701528367.088,19.609,19.609,-19.609,0.003,0.0034000000000000002,0.0048000000000000004,-0.007,-0.045,-0.099
1701528367.128,19.609,19.609,-19.609,0.002,0.0022,0.0037,-0.03,-0.048,-0.093
1701528367.168,19.609,19.609,-19.609,0.0017000000000000001,0.0015,-0.0031000000000000003,0.0,-0.048,-0.106
1701528367.208,19.609,19.609,-19.609,0.0009000000000000001,0.0036000000000000003,0.0057,-0.001,-0.055,-0.101
1701528367.248,19.609,19.609,-19.609,0.0037,0.0,0.0012000000000000001,0.0,-0.056,-0.105
1701528367.2879999,19.609,19.609,-19.609,0.0017000000000000001,0.001,0.003,-0.004,-0.058,-0.101
1701528367.328,19.609,19.609,-19.609,-0.0031000000000000003,0.0007,-0.0001,0.002,-0.063,-0.105
1701528367.368,19.609,19.609,-19.609,0.0007,0.004200000000000001,-0.0022,0.01,-0.066,-0.106
1701528367.408,19.609,19.609,-19.609,0.0007,0.0015,0.0033,0.001,-0.062,-0.111
1701528367.448,19.609,19.609,-19.609,0.0023,0.0014,0.0033,0.007,-0.055,-0.10200000000000001
1701528367.488,19.609,19.609,-19.609,0.0,0.0011,0.002,0.009000000000000001,-0.066,-0.097
1701528367.5279999,19.609,19.609,-19.609,0.0032,0.0036000000000000003,0.0037,-0.003,-0.047,-0.105
1701528367.568,19.609,19.609,-19.609,0.0007,0.0008,-0.006500000000000001,0.001,-0.048,-0.10400000000000001
1701528367.608,19.609,19.609,-19.609,0.0023,0.0017000000000000001,-0.0053,0.001,-0.054,-0.1
1701528367.648,19.609,19.609,-19.609,0.0024000000000000002,0.0034000000000000002,0.0026000000000000003,-0.009000000000000001,-0.047,-0.106
1701528367.688,19.609,19.609,-19.609,0.0023,0.0024000000000000002,0.0059,-0.007,-0.064,-0.10300000000000001
1701528367.728,19.609,19.609,-19.609,0.00030000000000000003,0.00030000000000000003,0.0,-0.008,-0.065,-0.096
1701528367.768,19.609,19.609,-19.609,0.0002,0.0009000000000000001,-0.0026000000000000003,-0.007,-0.07100000000000001,-0.1
1701528367.808,19.609,19.609,-19.609,0.0036000000000000003,0.004200000000000001,-0.0008,-0.005,-0.068,-0.092
1701528367.848,19.609,19.609,-19.609,0.0009000000000000001,0.0031000000000000003,0.0068000000000000005,-0.001,-0.062,-0.106
1701528367.888,19.609,19.609,-19.609,0.0017000000000000001,0.0023,-0.0023,0.003,-0.058,-0.105
1701528367.928,19.609,19.609,-19.609,0.0033,0.0019,-0.0177,0.003,-0.058,-0.10200000000000001
1701528367.968,19.609,19.609,-19.609,0.0031000000000000003,0.0028,-0.005200000000000001,-0.001,-0.059000000000000004,-0.101
1701528368.008,19.609,19.609,-19.609,0.0011,0.0015,-0.0068000000000000005,-0.001,-0.048,-0.1
1701528368.048,19.609,19.609,-19.609,0.0002,0.0006000000000000001,-0.0015,0.007,-0.055,-0.108
1701528368.088,19.609,19.609,-19.609,0.0007,0.0022,-0.0055000000000000005,0.001,-0.052000000000000005,-0.10300000000000001
1701528368.128,19.609,19.609,-19.609,0.0029000000000000002,0.002,-0.0009000000000000001,0.0,-0.054,-0.10300000000000001
1701528368.168,19.609,19.609,-19.609,0.0016,0.001,0.0009000000000000001,-0.003,-0.052000000000000005,-0.10200000000000001
1701528368.208,19.609,19.609,-19.609,0.0,0.0022,0.0017000000000000001,0.012,-0.043000000000000003,-0.091
1701528368.248,19.609,19.609,-19.609,0.0022,0.0021000000000000003,0.001,0.0,-0.033,-0.095
1701528368.288,19.609,19.609,-19.609,0.0013000000000000002,0.0019,-0.0123,0.0,-0.029,-0.101
1701528368.328,19.609,19.609,-19.609,0.0029000000000000002,0.0013000000000000002,0.0073,0.001,-0.037,-0.093
1701528368.368,19.609,19.609,-19.609,0.0006000000000000001,0.0017000000000000001,0.0059,-0.003,-0.031,-0.094
1701528368.408,19.609,19.609,-19.609,0.0017000000000000001,0.0008,0.0009000000000000001,-0.002,-0.027,-0.091
1701528368.448,19.609,19.609,-19.609,0.0005,0.0033,0.0017000000000000001,-0.009000000000000001,-0.037,-0.083
1701528368.488,19.609,19.609,-19.609,0.002,0.0051,0.0064,-0.001,-0.059000000000000004,-0.081
1701528368.528,19.609,19.609,-19.609,0.0014,0.0021000000000000003,-0.0023,-0.012,-0.036000000000000004,-0.088
1701528368.568,19.609,19.609,-19.609,0.0025,0.0054,-0.006500000000000001,0.0,-0.04,-0.092
1701528368.608,19.609,19.609,-19.609,0.0014,0.0034000000000000002,0.004200000000000001,0.0,-0.031,-0.096
1701528368.648,19.609,19.609,-19.609,0.00030000000000000003,0.0023,-0.0048000000000000004,-0.004,-0.024,-0.094
1701528368.688,19.609,19.609,-19.609,0.001,0.0028,0.0011,0.0,-0.025,-0.094
1701528368.728,19.609,19.609,-19.609,0.0039000000000000003,0.0023,-0.0006000000000000001,-0.004,-0.032,-0.099
1701528368.768,19.609,19.609,-19.609,-0.00030000000000000003,0.0027,-0.0014,-0.006,-0.033,-0.093
1701528368.8079998,19.609,19.609,-19.609,0.0006000000000000001,0.002,0.005200000000000001,-0.003,-0.041,-0.097
1701528368.848,19.609,19.609,-19.609,0.001,0.0026000000000000003,0.0019,-0.005,-0.032,-0.101
1701528368.888,19.609,19.609,-19.609,0.0012000000000000001,0.0024000000000000002,-0.0067,-0.004,-0.033,-0.107
1701528368.928,19.609,19.609,-19.609,0.0016,0.0021000000000000003,0.0238,-0.009000000000000001,-0.03,-0.097
1701528368.968,19.609,19.609,-19.609,-0.0004,0.0025,-0.001,0.0,-0.054,-0.09
1701528369.008,19.609,19.609,-19.609,0.00030000000000000003,0.0022,0.0061,-0.008,-0.052000000000000005,-0.10200000000000001
1701528369.0479999,19.609,19.609,-19.609,0.0025,0.0037,0.0001,-0.012,-0.014,-0.111
1701528369.088,19.609,19.609,-19.609,0.0021000000000000003,0.0025,-0.0028,-0.011,-0.025,-0.10400000000000001
1701528369.128,19.609,19.609,-19.609,0.0005,0.002,-0.0032,-0.01,-0.024,-0.1
1701528369.168,19.609,19.609,-19.609,0.0044,0.0018000000000000002,0.0037,-0.018000000000000002,-0.015,-0.107
1701528369.208,19.609,19.609,-19.609,0.0038,0.0037,0.0046,-0.014,-0.027,-0.093
1701528369.248,19.609,19.609,-19.609,0.0017000000000000001,0.0032,-0.00030000000000000003,-0.011,-0.032,-0.094
1701528369.2879999,19.609,19.609,-19.609,0.0007,0.0013000000000000002,0.0028,-0.014,-0.024,-0.10200000000000001
1701528369.328,19.609,19.609,-19.609,0.0011,0.0044,0.0058000000000000005,0.0,-0.029,-0.1
1701528369.368,19.609,19.609,-19.609,0.0035,0.0028,-0.0017000000000000001,0.0,-0.03,-0.1
1701528369.408,19.609,19.609,-19.609,0.0021000000000000003,0.0028,-0.0028,-0.002,-0.026000000000000002,-0.111
1701528369.448,19.609,19.609,-19.609,0.0023,0.0005,0.0041,-0.01,-0.024,-0.112
1701528369.488,19.609,19.609,-19.609,0.0,0.0048000000000000004,0.0056,-0.009000000000000001,-0.022,-0.101
1701528369.5279999,19.609,19.609,-19.609,0.0034000000000000002,0.0048000000000000004,0.0036000000000000003,-0.003,-0.028,-0.10300000000000001
1701528369.568,19.609,19.609,-19.609,0.0034000000000000002,0.0012000000000000001,0.0054,-0.007,-0.023,-0.108
1701528369.608,19.609,19.609,-19.609,0.002,0.0036000000000000003,-0.0076,-0.008,-0.027,-0.097
1701528369.648,19.609,19.609,-19.609,0.0006000000000000001,0.0013000000000000002,-0.0057,-0.002,-0.03,-0.094
1701528369.688,19.609,19.609,-19.609,0.006200000000000001,0.0032,0.001,-0.012,-0.032,-0.095
1701528369.728,19.609,19.609,-19.609,0.0017000000000000001,0.0032,0.001,0.008,-0.042,-0.088
1701528369.768,19.609,19.609,-19.609,0.0028,0.001,0.0172,0.003,-0.03,-0.099
1701528369.808,19.609,19.609,-19.609,0.0019,0.0005,-0.0125,0.0,-0.016,-0.109
1701528369.848,19.609,19.609,-19.609,0.0001,0.0035,0.0,0.001,-0.023,-0.094
1701528369.888,19.609,19.609,-19.609,0.0018000000000000002,0.0013000000000000002,0.0017000000000000001,-0.002,-0.03,-0.08700000000000001
1701528369.928,19.609,19.609,-19.609,0.0051,0.0036000000000000003,0.0016,-0.004,-0.024,-0.099
1701528369.968,19.609,19.609,-19.609,-0.0001,-0.0009000000000000001,0.0059,0.001,-0.028,-0.098
1701528370.008,19.609,19.609,-19.609,0.0014,0.0022,0.0012000000000000001,0.007,-0.043000000000000003,-0.08600000000000001
1701528370.048,19.609,19.609,-19.609,0.0028,0.0029000000000000002,0.0009000000000000001,-0.029,-0.045,-0.083
1701528370.088,19.609,19.609,-19.609,0.0031000000000000003,0.0018000000000000002,0.0053,-0.004,-0.048,-0.094
1701528370.128,19.609,19.609,-19.609,0.0034000000000000002,0.0015,-0.0037,-0.008,-0.053,-0.096
1701528370.168,19.609,19.609,-19.609,0.004,0.0004,0.0041,-0.007,-0.056,-0.098
1701528370.208,19.609,19.609,-19.609,0.0014,0.0031000000000000003,-0.0029000000000000002,-0.015,-0.051000000000000004,-0.1
1701528370.248,19.609,19.609,-19.609,0.0028,0.0031000000000000003,0.0016,-0.002,-0.056,-0.105
1701528370.288,19.609,19.609,-19.609,0.0029000000000000002,0.004200000000000001,-0.0001,-0.003,-0.049,-0.111
1701528370.328,19.609,19.609,-19.609,-0.0001,0.005,0.0024000000000000002,-0.004,-0.055,-0.11
1701528370.368,19.609,19.609,-19.609,0.0006000000000000001,0.0021000000000000003,0.0041,-0.004,-0.055,-0.105
1701528370.408,19.609,19.609,-19.609,-0.0009000000000000001,0.0016,-0.006500000000000001,0.0,-0.057,-0.106
1701528370.448,19.609,19.609,-19.609,0.0012000000000000001,0.0031000000000000003,-0.0031000000000000003,-0.008,-0.06,-0.114
1701528370.488,19.609,19.609,-19.609,-0.0002,0.0039000000000000003,-0.0015,-0.016,-0.05,-0.1
1701528370.528,19.609,19.609,-19.609,-0.0001,0.0013000000000000002,0.006200000000000001,0.001,-0.049,-0.10200000000000001
1701528370.568,19.609,19.609,-19.609,0.0015,0.003,-0.0005,-0.006,-0.061,-0.116
1701528370.608,19.609,19.609,-19.609,0.0016,0.0034000000000000002,0.003,-0.014,-0.032,-0.105
1701528370.648,19.609,19.609,-19.609,0.0017000000000000001,0.0029000000000000002,0.0023,-0.01,-0.037,-0.098
1701528370.688,19.609,19.609,-19.609,0.004200000000000001,0.0038,0.0059,-0.017,-0.028,-0.10200000000000001
1701528370.728,19.609,19.609,-19.609,0.0018000000000000002,0.0046,-0.0028,-0.017,-0.031,-0.099
1701528370.768,19.609,19.609,-19.609,0.0023,0.0015,-0.0054,-0.01,-0.038,-0.088
1701528370.8079998,19.609,19.609,-19.609,0.0009000000000000001,0.0019,0.0073,-0.013000000000000001,-0.04,-0.089
1701528370.848,19.609,19.609,-19.609,0.0011,0.0025,-0.001,-0.002,-0.029,-0.096
1701528370.888,19.609,19.609,-19.609,0.0014,0.0023,0.005,0.0,-0.047,-0.09
1701528370.928,19.609,19.609,-19.609,0.0004,0.0012000000000000001,-0.0014,0.0,-0.047,-0.1
1701528370.968,19.609,19.609,-19.609,0.001,0.0028,0.008700000000000001,-0.001,-0.042,-0.108
1701528371.008,19.609,19.609,-19.609,0.0018000000000000002,0.0016,-0.0015,0.006,-0.055,-0.108
1701528371.0479999,19.609,19.609,-19.609,0.001,0.0015,-0.0083,0.0,-0.054,-0.10300000000000001
1701528371.088,19.609,19.609,-19.609,0.0014,0.0024000000000000002,0.006200000000000001,-0.004,-0.051000000000000004,-0.105
1701528371.128,19.609,19.609,-19.609,0.001,0.001,-0.00030000000000000003,0.011,-0.048,-0.101
1701528371.168,19.609,19.609,-19.609,0.0023,0.0029000000000000002,0.0043,0.003,-0.051000000000000004,-0.109
1701528371.208,19.609,19.609,-19.609,0.001,0.0011,-0.0034000000000000002,-0.008,-0.051000000000000004,-0.11
1701528371.248,19.609,19.609,-19.609,0.0,0.003,0.0053,0.0,-0.05,-0.101
1701528371.2879999,19.609,19.609,-19.609,0.0032,0.0008,0.0,-0.002,-0.05,-0.099
1701528371.328,19.609,19.609,-19.609,0.002,0.0014,0.0032,-0.015,-0.04,-0.10200000000000001
1701528371.368,19.609,19.609,-19.609,0.003,0.0028,-0.0034000000000000002,-0.029,-0.04,-0.10300000000000001
1701528371.408,19.609,19.609,-19.609,0.0014,0.0023,-0.0006000000000000001,-0.033,-0.049,-0.093
1701528371.448,19.609,19.609,-19.609,-0.0002,0.0029000000000000002,0.01,-0.043000000000000003,-0.049,-0.088
1701528371.488,19.609,19.609,-19.609,0.0015,0.0034000000000000002,0.0112,-0.041,-0.044,-0.089
1701528371.5279999,19.609,19.609,-19.609,0.0028,0.0024000000000000002,0.0015,-0.038,-0.046,-0.084
1701528371.568,19.609,19.609,-19.609,0.0016,0.0046,-0.0015,-0.042,-0.052000000000000005,-0.085
1701528371.608,19.609,19.609,-19.609,0.0017000000000000001,0.0017000000000000001,0.007200000000000001,-0.038,-0.039,-0.094
1701528371.648,19.609,19.609,-19.609,0.0026000000000000003,0.0002,0.0011,-0.028,-0.015,-0.089
1701528371.688,19.609,19.609,-19.609,0.0026000000000000003,0.0024000000000000002,0.007500000000000001,-0.01,-0.019,-0.095
1701528371.728,19.609,19.609,-19.609,0.002,0.0028,0.0011,-0.007,-0.001,-0.10200000000000001
1701528371.768,19.609,19.609,-19.609,0.0009000000000000001,0.0027,0.0014,0.008,-0.012,-0.113
1701528371.808,19.609,19.609,-19.609,0.0012000000000000001,0.0025,-0.0015,0.012,-0.011,-0.10300000000000001
1701528371.848,19.609,19.609,-19.609,0.002,0.0034000000000000002,0.0054,0.021,-0.021,-0.11800000000000001
1701528371.888,19.609,19.609,-19.609,0.0026000000000000003,0.0025,-0.0001,0.025,-0.025,-0.11900000000000001
1701528371.928,19.609,19.609,-19.609,-0.0014,0.0024000000000000002,0.0027,0.026000000000000002,-0.029,-0.1
1701528371.968,19.609,19.609,-19.609,0.0022,0.001,0.0057,0.018000000000000002,-0.036000000000000004,-0.112
1701528372.008,19.609,19.609,-19.609,0.0005,0.0023,0.0032,-0.024,-0.031,-0.114
1701528372.048,19.609,19.609,-19.609,0.0029000000000000002,0.0022,-0.001,0.014,-0.03,-0.106
1701528372.088,19.609,19.609,-19.609,0.0038,0.0034000000000000002,0.0004,0.023,-0.022,-0.107
1701528372.128,19.609,19.609,-19.609,0.0006000000000000001,0.0038,0.0012000000000000001,-0.018000000000000002,-0.007,-0.10200000000000001
1701528372.168,19.609,19.609,-19.609,0.0007,0.0023,0.0006000000000000001,-0.01,-0.011,-0.099
1701528372.208,19.609,19.609,-19.609,0.0028,0.0026000000000000003,0.0053,-0.011,-0.016,-0.094
1701528372.248,19.609,19.609,-19.609,0.0025,0.003,0.0007,-0.011,0.002,-0.099
1701528372.288,19.609,19.609,-19.609,-0.0027,0.0006000000000000001,0.0037,-0.012,-0.005,-0.094
1701528372.328,19.609,19.609,-19.609,0.0,0.0013000000000000002,0.0029000000000000002,-0.005,-0.055,-0.099
1701528372.368,19.609,19.609,-19.609,0.0048000000000000004,0.0006000000000000001,0.0,-0.008,-0.019,-0.095
1701528372.408,19.609,19.609,-19.609,0.0029000000000000002,0.0023,-0.002,-0.002,-0.031,-0.106
1701528372.448,19.609,19.609,-19.609,0.0015,0.002,-0.007,0.004,-0.03,-0.107
1701528372.488,19.609,19.609,-19.609,0.0001,0.0023,0.0047,0.006,-0.028,-0.11
1701528372.528,19.609,19.609,-19.609,0.0007,-0.0004,0.0004,0.012,-0.032,-0.10400000000000001
1701528372.568,19.609,19.609,-19.609,0.0026000000000000003,0.0014,-0.00030000000000000003,0.008,-0.029,-0.10200000000000001
1701528372.608,19.609,19.609,-19.609,0.0039000000000000003,0.0029000000000000002,0.0063,0.006,-0.032,-0.109
1701528372.648,19.609,19.609,-19.609,0.0017000000000000001,0.0021000000000000003,0.0034000000000000002,0.006,-0.037,-0.10300000000000001
1701528372.688,19.609,19.609,-19.609,0.0019,0.0046,0.001,0.007,-0.033,-0.101
1701528372.728,19.609,19.609,-19.609,0.0032,0.0024000000000000002,-0.0006000000000000001,0.004,-0.037,-0.10200000000000001
1701528372.768,19.609,19.609,-19.609,0.0008,0.0026000000000000003,-0.0001,0.003,-0.041,-0.099
1701528372.8079998,19.609,19.609,-19.609,0.0023,0.0028,0.0061,0.005,-0.052000000000000005,-0.091
1701528372.848,19.609,19.609,-19.609,-0.00030000000000000003,0.0009000000000000001,-0.0009000000000000001,-0.006,-0.043000000000000003,-0.106
1701528372.888,19.609,19.609,-19.609,0.0029000000000000002,0.0012000000000000001,0.0092,-0.009000000000000001,-0.046,-0.101
1701528372.928,19.609,19.609,-19.609,0.0014,0.0018000000000000002,-0.00030000000000000003,-0.007,-0.059000000000000004,-0.088
1701528372.968,19.609,19.609,-19.609,0.0017000000000000001,0.0035,0.0021000000000000003,-0.01,-0.061,-0.082
1701528373.008,19.609,19.609,-19.609,0.0015,0.004200000000000001,0.0016,-0.003,-0.063,-0.093
1701528373.0479999,19.609,19.609,-19.609,0.0013000000000000002,0.0009000000000000001,-0.0012000000000000001,-0.002,-0.063,-0.08700000000000001
1701528373.088,19.609,19.609,-19.609,0.0025,0.003,-0.0014,-0.002,-0.063,-0.09
1701528373.128,19.609,19.609,-19.609,0.0009000000000000001,0.0021000000000000003,0.0037,0.005,-0.061,-0.095
1701528373.168,19.609,19.609,-19.609,0.003,0.0041,0.0131,0.007,-0.054,-0.092
1701528373.208,19.609,19.609,-19.609,0.0007,0.004,0.00030000000000000003,0.005,-0.051000000000000004,-0.098
1701528373.248,19.609,19.609,-19.609,0.0015,0.001,0.0078000000000000005,0.008,-0.05,-0.105
1701528373.2879999,19.609,19.609,-19.609,0.0031000000000000003,0.0043,0.0048000000000000004,0.021,-0.04,-0.099
1701528373.328,19.609,19.609,-19.609,-0.0006000000000000001,0.0051,0.0024000000000000002,0.005,-0.045,-0.096
1701528373.368,19.609,19.609,-19.609,-0.00030000000000000003,0.0027,0.0026000000000000003,0.01,-0.048,-0.10200000000000001
1701528373.408,19.609,19.609,-19.609,0.0038,0.0025,-0.0004,0.005,-0.051000000000000004,-0.10300000000000001
1701528373.448,19.609,19.609,-19.609,0.002,0.003,0.0021000000000000003,0.003,-0.051000000000000004,-0.10300000000000001
1701528373.488,19.609,19.609,-19.609,0.0018000000000000002,0.0048000000000000004,0.001,0.001,-0.05,-0.10400000000000001
1701528373.5279999,19.609,19.609,-19.609,0.0025,0.002,0.0059,0.003,-0.038,-0.094
1701528373.568,19.609,19.609,-19.609,0.004200000000000001,0.0048000000000000004,-0.0019,0.001,-0.03,-0.098
1701528373.608,19.609,19.609,-19.609,0.0007,-0.0002,0.0048000000000000004,-0.007,-0.027,-0.098
1701528373.648,19.609,19.609,-19.609,0.004,0.0038,-0.0026000000000000003,-0.005,-0.035,-0.096
1701528373.688,19.609,19.609,-19.609,-0.0005,0.0001,0.0032,-0.001,-0.041,-0.089
1701528373.728,19.609,19.609,-19.609,0.0046,0.0024000000000000002,0.007500000000000001,-0.017,-0.034,-0.107
1701528373.768,19.609,19.609,-19.609,0.0001,0.0029000000000000002,0.0031000000000000003,-0.004,-0.052000000000000005,-0.094
1701528373.808,19.609,19.609,-19.609,0.0026000000000000003,0.004200000000000001,0.0006000000000000001,-0.002,-0.052000000000000005,-0.081
1701528373.848,19.609,19.609,-19.609,0.001,0.0047,0.00030000000000000003,-0.003,-0.065,-0.10200000000000001
1701528373.888,19.609,19.609,-19.609,-0.0006000000000000001,0.0021000000000000003,0.0046,0.0,-0.02,-0.096
1701528373.928,19.609,19.609,-19.609,0.0029000000000000002,0.0006000000000000001,0.0009000000000000001,-0.009000000000000001,-0.043000000000000003,-0.10200000000000001
1701528373.968,19.609,19.609,-19.609,0.0009000000000000001,0.0014,-0.0002,-0.009000000000000001,-0.045,-0.107
1701528374.008,19.609,19.609,-19.609,-0.00030000000000000003,0.0012000000000000001,-0.002,-0.015,-0.035,-0.106
1701528374.048,19.609,19.609,-19.609,0.0015,0.0029000000000000002,0.0029000000000000002,-0.007,-0.061,-0.097
1701528374.088,19.609,19.609,-19.609,0.0021000000000000003,0.0015,0.004200000000000001,-0.012,-0.045,-0.098
1701528374.128,19.609,19.609,-19.609,0.0005,0.0036000000000000003,-0.0004,-0.014,-0.044,-0.106
1701528374.168,19.609,19.609,-19.609,-0.0021000000000000003,0.0037,0.0019,-0.007,-0.03,-0.10200000000000001
1701528374.208,19.609,19.609,-19.609,0.0014,0.0044,0.00030000000000000003,-0.007,-0.042,-0.10300000000000001
1701528374.248,19.609,19.609,-19.609,0.0025,0.0008,0.001,-0.007,-0.046,-0.106
1701528374.288,19.609,19.609,-19.609,0.0014,0.0039000000000000003,0.0036000000000000003,0.002,-0.07100000000000001,-0.106
1701528374.328,19.609,19.609,-19.609,0.0023,0.0018000000000000002,-0.00030000000000000003,-0.014,-0.04,-0.098
1701528374.368,19.609,19.609,-19.609,0.0023,0.0031000000000000003,0.0036000000000000003,-0.006,-0.037,-0.109
1701528374.408,19.609,19.609,-19.609,0.0005,0.0018000000000000002,-0.0004,-0.013000000000000001,-0.041,-0.1
1701528374.448,19.609,19.609,-19.609,-0.0014,0.002,0.0067,-0.004,-0.043000000000000003,-0.094
1701528374.488,19.609,19.609,-19.609,0.0015,0.0026000000000000003,0.0005,-0.019,-0.029,-0.099
1701528374.528,19.609,19.609,-19.609,0.0023,0.0045000000000000005,0.0031000000000000003,-0.013000000000000001,-0.043000000000000003,-0.096
1701528374.568,19.609,19.609,-19.609,0.0011,0.0039000000000000003,0.0017000000000000001,-0.009000000000000001,-0.046,-0.091
1701528374.608,19.609,19.609,-19.609,0.0001,0.0026000000000000003,-0.0037,-0.006,-0.041,-0.095
1701528374.648,19.609,19.609,-19.609,0.0028,0.0007,0.0076,-0.007,-0.034,-0.095
1701528374.688,19.609,19.609,-19.609,0.0026000000000000003,0.001,-0.005200000000000001,-0.006,-0.035,-0.095
1701528374.728,19.609,19.609,-19.609,0.0012000000000000001,0.00030000000000000003,0.0015,0.003,-0.027,-0.098
1701528374.768,19.609,19.609,-19.609,0.0001,-0.0001,0.0036000000000000003,0.002,-0.024,-0.10300000000000001
1701528374.8079998,19.609,19.609,-19.609,0.0023,0.0028,0.0051,0.0,-0.027,-0.094
1701528374.848,19.609,19.609,-19.609,0.0006000000000000001,0.0012000000000000001,-0.001,0.002,-0.036000000000000004,-0.089
1701528374.888,19.609,19.609,-19.609,0.0013000000000000002,0.0034000000000000002,0.0015,0.005,-0.036000000000000004,-0.089
1701528374.928,19.609,19.609,-19.609,0.0022,0.0041,-0.0029000000000000002,0.002,-0.033,-0.088
1701528374.968,19.609,19.609,-19.609,0.001,0.0034000000000000002,0.008700000000000001,0.013000000000000001,-0.035,-0.091
1701528375.008,19.609,19.609,-19.609,0.0032,0.002,-0.0007,0.01,-0.034,-0.091
1701528375.0479999,19.609,19.609,-19.609,0.0006000000000000001,0.0014,-0.0132,0.027,-0.042,-0.08
1701528375.088,19.609,19.609,-19.609,0.0008,0.0028,0.0064,0.021,-0.037,-0.084
1701528375.128,19.609,19.609,-19.609,0.0017000000000000001,0.0031000000000000003,0.0035,0.02,-0.025,-0.1
1701528375.168,19.609,19.609,-19.609,0.002,0.0005,0.0026000000000000003,0.02,-0.025,-0.095
1701528375.208,19.609,19.609,-19.609,0.0019,0.0021000000000000003,0.0023,0.005,-0.036000000000000004,-0.091
1701528375.248,19.609,19.609,-19.609,0.0012000000000000001,0.004,0.0031000000000000003,0.01,-0.035,-0.09
1701528375.2879999,19.609,19.609,-19.609,0.0014,0.0,-0.0026000000000000003,0.009000000000000001,-0.038,-0.096
1701528375.328,19.609,19.609,-19.609,0.004,0.0015,0.0019,0.011,-0.054,-0.097
1701528375.368,19.609,19.609,-19.609,0.0006000000000000001,0.0024000000000000002,-0.004,0.016,-0.05,-0.096
1701528375.408,19.609,19.609,-19.609,0.0021000000000000003,0.0021000000000000003,-0.0001,0.001,-0.018000000000000002,-0.098
1701528375.448,19.609,19.609,-19.609,-0.0023,0.0045000000000000005,0.0023,0.002,-0.051000000000000004,-0.093
1701528375.488,19.609,19.609,-19.609,0.0033,0.0045000000000000005,0.00030000000000000003,0.001,-0.038,-0.096
1701528375.5279999,19.609,19.609,-19.609,0.0016,0.0026000000000000003,0.0038,-0.003,-0.062,-0.097
1701528375.568,19.609,19.609,-19.609,0.0022,-0.0006000000000000001,-0.004200000000000001,0.0,-0.038,-0.098
1701528375.608,19.609,19.609,-19.609,0.0028,0.0025,-0.0016,-0.003,-0.045,-0.08700000000000001
1701528375.648,19.609,19.609,-19.609,0.0017000000000000001,0.0028,-0.0026000000000000003,0.0,-0.045,-0.094
1701528375.688,19.609,19.609,-19.609,0.0021000000000000003,0.0007,0.0073,0.002,-0.022,-0.098
1701528375.728,19.609,19.609,-19.609,0.0014,0.0018000000000000002,-0.0019,-0.004,-0.041,-0.095
1701528375.768,19.609,19.609,-19.609,0.0023,0.0018000000000000002,0.0,-0.006,-0.034,-0.1
1701528375.808,19.609,19.609,-19.609,0.0018000000000000002,0.0017000000000000001,-0.0009000000000000001,0.001,-0.041,-0.092
1701528375.848,19.609,19.609,-19.609,0.0019,0.0022,-0.001,0.001,-0.009000000000000001,-0.094
1701528375.888,19.609,19.609,-19.609,0.0028,0.0034000000000000002,0.003,-0.009000000000000001,-0.022,-0.097
1701528375.928,19.609,19.609,-19.609,0.004200000000000001,0.0025,-0.0083,-0.007,-0.018000000000000002,-0.10200000000000001
1701528375.968,19.609,19.609,-19.609,0.0032,0.0008,0.003,-0.007,-0.025,-0.089
1701528376.008,19.609,19.609,-19.609,0.0036000000000000003,0.004,0.0068000000000000005,-0.011,-0.023,-0.096
1701528376.048,19.609,19.609,-19.609,0.0007,0.0029000000000000002,-0.0009000000000000001,-0.008,-0.013000000000000001,-0.101
1701528376.088,19.609,19.609,-19.609,0.0034000000000000002,0.0016,-0.0012000000000000001,-0.003,-0.024,-0.094
1701528376.128,19.609,19.609,-19.609,0.0005,0.0025,0.006200000000000001,-0.012,-0.023,-0.10400000000000001
1701528376.168,19.609,19.609,-19.609,0.0,0.0028,-0.0017000000000000001,-0.004,-0.026000000000000002,-0.101
1701528376.208,19.609,19.609,-19.609,0.0017000000000000001,0.0006000000000000001,0.0029000000000000002,-0.004,-0.032,-0.1
1701528376.248,19.609,19.609,-19.609,0.0,0.0031000000000000003,0.0012000000000000001,-0.001,-0.034,-0.105
1701528376.288,19.609,19.609,-19.609,0.00030000000000000003,0.0033,-0.0024000000000000002,-0.004,-0.029,-0.10300000000000001
1701528376.328,19.609,19.609,-19.609,0.0007,0.0019,0.006500000000000001,-0.016,-0.03,-0.105
1701528376.368,19.609,19.609,-19.609,0.0007,0.0017000000000000001,0.006,-0.007,-0.043000000000000003,-0.10200000000000001
1701528376.408,19.609,19.609,-19.609,-0.0001,0.0037,-0.0057,-0.008,-0.037,-0.10400000000000001
1701528376.448,19.609,19.609,-19.609,0.0027,0.0029000000000000002,-0.0007,-0.009000000000000001,-0.034,-0.1
1701528376.488,19.609,19.609,-19.609,-0.0004,0.0024000000000000002,-0.0034000000000000002,-0.007,-0.042,-0.10300000000000001
1701528376.528,19.609,19.609,-19.609,-0.0005,0.0017000000000000001,0.0071,-0.009000000000000001,-0.04,-0.108
1701528376.568,19.609,19.609,-19.609,0.0026000000000000003,0.0028,0.0016,-0.006,-0.03,-0.1
1701528376.608,19.609,19.609,-19.609,0.0015,0.0036000000000000003,-0.0028,0.0,-0.045,-0.096
1701528376.648,19.609,19.609,-19.609,0.0012000000000000001,0.0015,0.0007,-0.018000000000000002,-0.018000000000000002,-0.10300000000000001
1701528376.688,19.609,19.609,-19.609,0.0015,0.0026000000000000003,-0.014100000000000001,-0.008,-0.027,-0.114
1701528376.728,19.609,19.609,-19.609,0.0031000000000000003,0.002,-0.0164,-0.011,-0.027,-0.096
1701528376.768,19.609,19.609,-19.609,-0.001,0.0009000000000000001,-0.014400000000000001,-0.018000000000000002,-0.032,-0.1
1701528376.8079998,19.609,19.609,-19.609,0.0,0.004200000000000001,-0.0031000000000000003,-0.013000000000000001,-0.026000000000000002,-0.10200000000000001
1701528376.848,19.609,19.609,-19.609,-0.0008,0.0034000000000000002,0.007200000000000001,-0.009000000000000001,-0.037,-0.089
1701528376.888,19.609,19.609,-19.609,0.0015,0.0026000000000000003,0.0034000000000000002,-0.011,-0.032,-0.098
1701528376.928,19.609,19.609,-19.609,0.00030000000000000003,0.0039000000000000003,0.0005,-0.015,-0.026000000000000002,-0.099
1701528376.968,19.609,19.609,-19.609,0.002,0.0021000000000000003,-0.003,-0.011,-0.032,-0.09
1701528377.008,19.609,19.609,-19.609,0.0037,0.0009000000000000001,0.0053,-0.016,-0.026000000000000002,-0.101
1701528377.0479999,19.609,19.609,-19.609,0.0007,0.0028,0.007200000000000001,-0.013000000000000001,-0.027,-0.098
1701528377.088,19.609,19.609,-19.609,0.0011,0.0035,0.0009000000000000001,-0.01,-0.025,-0.091
1701528377.128,19.609,19.609,-19.609,0.001,0.002,0.004200000000000001,-0.01,-0.028,-0.097
1701528377.168,19.609,19.609,-19.609,0.0007,0.0,0.0016,-0.005,-0.031,-0.101
1701528377.208,19.609,19.609,-19.609,0.0006000000000000001,0.0021000000000000003,-0.0041,0.0,-0.047,-0.091
1701528377.248,19.609,19.609,-19.609,0.0019,0.0032,0.0004,-0.004,-0.033,-0.091
1701528377.2879999,19.609,19.609,-19.609,0.0009000000000000001,0.003,0.0029000000000000002,-0.025,-0.033,-0.101
1701528377.328,19.609,19.609,-19.609,-0.0001,0.0016,0.0007,-0.003,-0.035,-0.096
1701528377.368,19.609,19.609,-19.609,0.0011,0.0023,0.003,0.008,-0.037,-0.091
1701528377.408,19.609,19.609,-19.609,0.0019,0.0016,-0.0013000000000000002,-0.001,-0.031,-0.1
1701528377.448,19.609,19.609,-19.609,0.0041,0.0017000000000000001,0.001,-0.007,-0.021,-0.105
1701528377.488,19.609,19.609,-19.609,0.00030000000000000003,0.0015,0.0051,0.004,-0.036000000000000004,-0.092
1701528377.5279999,19.609,19.609,-19.609,0.0014,0.0032,0.002,-0.009000000000000001,-0.03,-0.099
1701528377.568,19.609,19.609,-19.609,0.00030000000000000003,0.0034000000000000002,0.0006000000000000001,0.0,-0.036000000000000004,-0.105
1701528377.608,19.609,19.609,-19.609,0.0004,0.0022,0.004200000000000001,0.002,-0.043000000000000003,-0.10200000000000001
1701528377.648,19.609,19.609,-19.609,0.0007,0.0007,-0.0004,0.003,-0.04,-0.1
1701528377.688,19.609,19.609,-19.609,0.0031000000000000003,0.002,0.0029000000000000002,0.008,-0.034,-0.101
1701528377.728,19.609,19.609,-19.609,0.0029000000000000002,0.0023,0.0068000000000000005,0.0,-0.038,-0.1
1701528377.768,19.609,19.609,-19.609,0.0002,0.0026000000000000003,0.0014,0.002,-0.041,-0.097
1701528377.808,19.609,19.609,-19.609,0.0006000000000000001,0.0036000000000000003,0.0034000000000000002,-0.001,-0.043000000000000003,-0.10200000000000001
1701528377.848,19.609,19.609,-19.609,0.0002,-0.0001,-0.0028,0.001,-0.051000000000000004,-0.106
1701528377.888,19.609,19.609,-19.609,0.0022,0.002,-0.008400000000000001,0.02,-0.046,-0.105
1701528377.928,19.609,19.609,-19.609,0.0004,0.0039000000000000003,0.0028,-0.001,-0.049,-0.10300000000000001
1701528377.968,19.609,19.609,-19.609,0.0011,0.0023,0.00030000000000000003,0.0,-0.051000000000000004,-0.101
1701528378.008,19.609,19.609,-19.609,0.0036000000000000003,0.0029000000000000002,-0.0012000000000000001,0.0,-0.053,-0.095
1701528378.048,19.609,19.609,-19.609,0.0017000000000000001,0.0007,0.0015,0.0,-0.049,-0.108
1701528378.088,19.609,19.609,-19.609,0.005,0.0026000000000000003,-0.0015,0.01,-0.045,-0.108
1701528378.128,19.609,19.609,-19.609,0.0018000000000000002,0.0014,0.0007,0.009000000000000001,-0.053,-0.1
1701528378.168,19.609,19.609,-19.609,0.0006000000000000001,0.002,0.0054,0.0,-0.025,-0.10400000000000001
1701528378.208,19.609,19.609,-19.609,-0.0005,0.0017000000000000001,0.0066,-0.003,-0.026000000000000002,-0.101
1701528378.248,19.609,19.609,-19.609,0.0012000000000000001,0.0017000000000000001,0.001,0.005,-0.04,-0.1
1701528378.288,19.609,19.609,-19.609,-0.0032,0.0008,0.0008,0.0,-0.025,-0.108
1701528378.328,19.609,19.609,-19.609,0.0,0.0023,0.006200000000000001,0.006,-0.051000000000000004,-0.10200000000000001
1701528378.368,19.609,19.609,-19.609,0.0007,0.004,0.0016,0.001,-0.047,-0.101
1701528378.408,19.609,19.609,-19.609,-0.0012000000000000001,0.0006000000000000001,0.004200000000000001,0.003,-0.048,-0.098
1701528378.448,19.609,19.609,-19.609,0.0078000000000000005,0.00030000000000000003,0.0016,-0.005,-0.043000000000000003,-0.10200000000000001
1701528378.488,19.609,19.609,-19.609,0.0015,0.0032,-0.0008,0.002,-0.051000000000000004,-0.093
1701528378.528,19.609,19.609,-19.609,0.0022,0.0028,-0.0088,0.001,-0.046,-0.10200000000000001
1701528378.568,19.609,19.609,-19.609,0.001,0.0009000000000000001,0.0198,-0.005,-0.051000000000000004,-0.096
1701528378.608,19.609,19.609,-19.609,0.0016,0.0011,-0.0064,0.0,-0.044,-0.101
1701528378.648,19.609,19.609,-19.609,0.0013000000000000002,0.0028,0.001,-0.002,-0.051000000000000004,-0.10400000000000001
1701528378.688,19.609,19.609,-19.609,0.0004,0.0032,-0.0004,-0.001,-0.051000000000000004,-0.097
1701528378.728,19.609,19.609,-19.609,0.0018000000000000002,0.0007,0.0036000000000000003,0.0,-0.052000000000000005,-0.10300000000000001
1701528378.768,19.609,19.609,-19.609,0.0037,0.004200000000000001,-0.010100000000000001,-0.001,-0.053,-0.105
1701528378.8079998,19.609,19.609,-19.609,0.0,0.003,0.0115,0.003,-0.063,-0.106
1701528378.848,19.609,19.609,-19.609,0.0013000000000000002,0.001,-0.0061,0.003,-0.054,-0.093
1701528378.888,19.609,19.609,-19.609,-0.00030000000000000003,0.0026000000000000003,-0.0009000000000000001,-0.006,-0.035,-0.096
1701528378.928,19.609,19.609,-19.609,0.0026000000000000003,0.0034000000000000002,0.0012000000000000001,-0.007,-0.029,-0.106
1701528378.968,19.609,19.609,-19.609,0.002,0.0027,0.0013000000000000002,-0.004,-0.04,-0.088
1701528379.008,19.609,19.609,-19.609,0.0018000000000000002,0.0002,0.0034000000000000002,-0.009000000000000001,-0.036000000000000004,-0.096
1701528379.0479999,19.609,19.609,-19.609,0.0032,0.0029000000000000002,-0.00030000000000000003,-0.006,-0.024,-0.085
1701528379.088,19.609,19.609,-19.609,0.0014,0.0032,0.0009000000000000001,-0.001,-0.039,-0.085
1701528379.128,19.609,19.609,-19.609,0.00030000000000000003,0.0023,0.0045000000000000005,-0.008,-0.032,-0.083
1701528379.168,19.609,19.609,-19.609,0.0027,0.004,0.005,-0.001,-0.026000000000000002,-0.092
1701528379.208,19.609,19.609,-19.609,0.003,0.0041,0.0031000000000000003,-0.002,-0.026000000000000002,-0.082
1701528379.248,19.609,19.609,-19.609,0.0026000000000000003,0.0043,0.0035,-0.007,-0.021,-0.089
1701528379.2879999,19.609,19.609,-19.609,0.0025,0.0019,0.0004,0.003,-0.012,-0.097
1701528379.328,19.609,19.609,-19.609,0.0004,0.0059,0.0002,-0.001,-0.021,-0.088
1701528379.368,19.609,19.609,-19.609,0.0018000000000000002,0.0029000000000000002,0.0081,0.003,-0.023,-0.097
1701528379.408,19.609,19.609,-19.609,0.0009000000000000001,0.003,-0.0047,0.027,-0.019,-0.109
1701528379.448,19.609,19.609,-19.609,0.0001,0.0033,0.0059,0.001,-0.03,-0.107
1701528379.488,19.609,19.609,-19.609,0.0,0.0005,0.0043,0.001,-0.036000000000000004,-0.10300000000000001
1701528379.5279999,19.609,19.609,-19.609,0.00030000000000000003,0.0018000000000000002,0.0046,-0.01,-0.019,-0.099
1701528379.568,19.609,19.609,-19.609,-0.0001,0.0023,0.004,0.006,-0.028,-0.094
1701528379.608,19.609,19.609,-19.609,0.0007,0.0006000000000000001,0.0021000000000000003,0.001,-0.037,-0.098
1701528379.648,19.609,19.609,-19.609,0.0009000000000000001,0.004200000000000001,0.010100000000000001,-0.011,-0.015,-0.101
1701528379.688,19.609,19.609,-19.609,-0.0004,0.0014,-0.0009000000000000001,-0.017,-0.012,-0.10300000000000001
1701528379.728,19.609,19.609,-19.609,0.0026000000000000003,0.0029000000000000002,-0.0036000000000000003,-0.01,-0.031,-0.099
1701528379.768,19.609,19.609,-19.609,0.0015,0.0009000000000000001,-0.0001,-0.013000000000000001,-0.034,-0.1
1701528379.808,19.609,19.609,-19.609,0.0017000000000000001,0.0037,-0.0002,-0.01,-0.02,-0.097
1701528379.848,19.609,19.609,-19.609,0.0022,0.0033,0.0058000000000000005,-0.008,-0.04,-0.092
1701528379.888,19.609,19.609,-19.609,0.00030000000000000003,0.0035,-0.0018000000000000002,-0.006,-0.041,-0.097
1701528379.928,19.609,19.609,-19.609,0.0025,0.0029000000000000002,0.0041,-0.015,-0.03,-0.097
1701528379.968,19.609,19.609,-19.609,0.0005,0.0017000000000000001,-0.0011,-0.01,-0.032,-0.093
1701528380.008,19.609,19.609,-19.609,0.0027,0.0021000000000000003,0.0032,-0.003,-0.034,-0.097
1701528380.048,19.609,19.609,-19.609,0.001,0.0024000000000000002,0.0027,-0.001,-0.03,-0.099
1701528380.088,19.609,19.609,-19.609,0.0001,0.0025,0.0014,-0.002,-0.03,-0.10300000000000001
1701528380.128,19.609,19.609,-19.609,0.00030000000000000003,0.0014,0.0023,-0.001,-0.04,-0.096
1701528380.168,19.609,19.609,-19.609,0.0029000000000000002,0.0034000000000000002,0.0004,0.005,-0.043000000000000003,-0.10400000000000001
1701528380.208,19.609,19.609,-19.609,0.0019,0.0041,-0.005,0.007,-0.044,-0.106
1701528380.248,19.609,19.609,-19.609,-0.0006000000000000001,0.0054,0.0039000000000000003,0.011,-0.049,-0.099
1701528380.288,19.609,19.609,-19.609,0.001,0.0033,0.0198,0.006,-0.044,-0.10300000000000001
1701528380.328,19.609,19.609,-19.609,0.0007,0.0018000000000000002,-0.0183,0.009000000000000001,-0.039,-0.1
1701528380.368,19.609,19.609,-19.609,0.0064,0.0029000000000000002,0.010700000000000001,0.015,-0.047,-0.105
1701528380.408,19.609,19.609,-19.609,-0.0002,0.0049,0.0013000000000000002,-0.001,-0.031,-0.112
1701528380.448,19.609,19.609,-19.609,-0.0002,0.0027,0.0029000000000000002,-0.003,-0.029,-0.106
1701528380.488,19.609,19.609,-19.609,0.0013000000000000002,0.0034000000000000002,-0.004200000000000001,-0.007,-0.021,-0.096
1701528380.528,19.609,19.609,-19.609,0.0039000000000000003,0.002,0.00030000000000000003,-0.008,-0.031,-0.093
1701528380.568,19.609,19.609,-19.609,0.0026000000000000003,0.0029000000000000002,0.006200000000000001,-0.005,-0.022,-0.098
1701528380.608,19.609,19.609,-19.609,0.0015,0.001,-0.004,-0.007,-0.04,-0.092
1701528380.648,19.609,19.609,-19.609,0.0006000000000000001,0.0005,0.0021000000000000003,-0.003,-0.047,-0.1
1701528380.688,19.609,19.609,-19.609,0.0008,0.0043,0.0017000000000000001,-0.006,-0.036000000000000004,-0.101
1701528380.728,19.609,19.609,-19.609,0.0024000000000000002,0.0031000000000000003,0.0018000000000000002,-0.005,-0.048,-0.096
1701528380.768,19.609,19.609,-19.609,0.0021000000000000003,0.0032,0.0019,0.0,-0.045,-0.096
1701528380.8079998,19.609,19.609,-19.609,-0.0021000000000000003,0.0012000000000000001,0.0046,-0.001,-0.049,-0.11
1701528380.848,19.609,19.609,-19.609,0.0006000000000000001,0.0026000000000000003,0.0046,-0.003,-0.056,-0.095
1701528380.888,19.609,19.609,-19.609,0.0018000000000000002,0.0017000000000000001,0.0014,0.0,-0.066,-0.101
1701528380.928,19.609,19.609,-19.609,0.0007,0.0048000000000000004,0.0031000000000000003,-0.007,-0.062,-0.1
1701528380.968,19.609,19.609,-19.609,-0.0006000000000000001,0.0009000000000000001,0.0047,-0.011,-0.068,-0.1
1701528381.008,19.609,19.609,-19.609,0.002,0.0023,-0.0027,0.006,-0.074,-0.097
1701528381.0479999,19.609,19.609,-19.609,0.0002,0.0024000000000000002,0.0056,-0.002,-0.058,-0.107
1701528381.088,19.609,19.609,-19.609,-0.0001,0.0032,-0.0009000000000000001,0.002,-0.053,-0.097
1701528381.128,19.609,19.609,-19.609,0.0014,0.0043,-0.005,0.007,-0.063,-0.097
1701528381.168,19.609,19.609,-19.609,0.001,0.0031000000000000003,0.00030000000000000003,-0.005,-0.049,-0.109
1701528381.208,19.609,19.609,-19.609,0.0024000000000000002,0.0033,0.0017000000000000001,-0.009000000000000001,-0.027,-0.10200000000000001
1701528381.248,19.609,19.609,-19.609,0.0043,0.0034000000000000002,0.0108,-0.008,-0.05,-0.101
1701528381.2879999,19.609,19.609,-19.609,-0.0001,0.0015,0.0038,-0.021,-0.058,-0.1
1701528381.328,19.609,19.609,-19.609,-0.0002,0.0009000000000000001,-0.0037,-0.015,-0.052000000000000005,-0.10200000000000001
1701528381.368,19.609,19.609,-19.609,0.0036000000000000003,0.0034000000000000002,0.0009000000000000001,0.012,-0.059000000000000004,-0.1
1701528381.408,19.609,19.609,-19.609,0.0028,0.0036000000000000003,0.003,-0.02,-0.058,-0.099
1701528381.448,19.609,19.609,-19.609,0.0023,0.0021000000000000003,0.0,-0.025,-0.054,-0.092
1701528381.488,19.609,19.609,-19.609,0.0029000000000000002,0.0021000000000000003,0.001,-0.022,-0.057,-0.082
1701528381.5279999,19.609,19.609,-19.609,0.0027,0.0038,0.0034000000000000002,-0.022,-0.048,-0.09
1701528381.568,19.609,19.609,-19.609,0.0026000000000000003,0.0034000000000000002,0.0036000000000000003,-0.015,-0.04,-0.097
1701528381.608,19.609,19.609,-19.609,-0.00030000000000000003,0.0031000000000000003,0.0061,-0.009000000000000001,-0.026000000000000002,-0.10200000000000001
1701528381.648,19.609,19.609,-19.609,-0.0011,0.0027,0.002,-0.005,-0.032,-0.097
1701528381.688,19.609,19.609,-19.609,-0.0001,0.002,0.0039000000000000003,-0.003,-0.034,-0.106
1701528381.728,19.609,19.609,-19.609,0.0028,0.0018000000000000002,-0.0016,0.005,-0.033,-0.10200000000000001
1701528381.768,19.609,19.609,-19.609,0.0039000000000000003,0.0021000000000000003,0.0034000000000000002,0.008,-0.025,-0.10400000000000001
1701528381.808,19.609,19.609,-19.609,0.0014,0.0022,0.0007,0.009000000000000001,-0.029,-0.113
1701528381.848,19.609,19.609,-19.609,0.0015,0.0022,-0.0097,-0.001,-0.027,-0.107
1701528381.888,19.609,19.609,-19.609,0.0013000000000000002,0.0036000000000000003,0.013900000000000001,0.007,-0.039,-0.101
1701528381.928,19.609,19.609,-19.609,0.0012000000000000001,0.0014,0.0004,0.0,-0.022,-0.111
1701528381.968,19.609,19.609,-19.609,0.0047,0.0006000000000000001,-0.0009000000000000001,-0.006,-0.014,-0.113
1701528382.008,19.609,19.609,-19.609,0.00030000000000000003,0.0026000000000000003,-0.0004,-0.007,-0.024,-0.097
1701528382.048,19.609,19.609,-19.609,-0.0002,0.0037,-0.030000000000000002,-0.016,-0.031,-0.10400000000000001
1701528382.088,19.609,19.609,-19.609,0.002,0.0023,0.021500000000000002,-0.01,-0.016,-0.10200000000000001
1701528382.128,19.609,19.609,-19.609,-0.0001,0.0024000000000000002,0.014400000000000001,-0.012,-0.034,-0.098
1701528382.168,19.609,19.609,-19.609,0.0029000000000000002,0.0029000000000000002,0.006500000000000001,-0.009000000000000001,-0.034,-0.1
1701528382.208,19.609,19.609,-19.609,0.00030000000000000003,0.0025,0.0005,-0.013000000000000001,-0.031,-0.10200000000000001
1701528382.248,19.609,19.609,-19.609,0.0016,0.0002,0.0016,-0.011,-0.026000000000000002,-0.10200000000000001
1701528382.288,19.609,19.609,-19.609,-0.00030000000000000003,0.0009000000000000001,0.0077,-0.011,-0.019,-0.10400000000000001
1701528382.328,19.609,19.609,-19.609,0.0016,0.0018000000000000002,-0.0017000000000000001,-0.014,-0.016,-0.11
1701528382.368,19.609,19.609,-19.609,0.0009000000000000001,0.0008,-0.0001,-0.005,-0.021,-0.098
1701528382.408,19.609,19.609,-19.609,0.0002,0.0007,-0.00030000000000000003,-0.006,-0.018000000000000002,-0.098
1701528382.448,19.609,19.609,-19.609,0.0029000000000000002,0.0043,0.0061,-0.003,-0.012,-0.106
1701528382.488,19.609,19.609,-19.609,0.0013000000000000002,0.0,0.0031000000000000003,-0.002,-0.018000000000000002,-0.108
1701528382.528,19.609,19.609,-19.609,0.0023,0.0019,-0.0023,-0.001,-0.023,-0.092
1701528382.568,19.609,19.609,-19.609,0.0016,0.0039000000000000003,0.0036000000000000003,-0.001,-0.027,-0.101
1701528382.608,19.609,19.609,-19.609,0.0019,0.0026000000000000003,0.0002,-0.025,-0.022,-0.092
1701528382.648,19.609,19.609,-19.609,0.0026000000000000003,0.0055000000000000005,0.0019,0.017,-0.031,-0.096
1701528382.688,19.609,19.609,-19.609,-0.0038,0.0045000000000000005,0.0004,0.0,-0.022,-0.101
1701528382.728,19.609,19.609,-19.609,0.0007,0.0006000000000000001,0.0029000000000000002,0.005,-0.026000000000000002,-0.107
1701528382.768,19.609,19.609,-19.609,0.0012000000000000001,0.0019,-0.0007,0.009000000000000001,-0.045,-0.094
1701528382.8079998,19.609,19.609,-19.609,0.0025,0.0033,-0.0051,0.001,-0.047,-0.099
1701528382.848,19.609,19.609,-19.609,0.0023,-0.00030000000000000003,0.0119,0.002,-0.063,-0.099
1701528382.888,19.609,19.609,-19.609,0.0009000000000000001,0.0009000000000000001,-0.0036000000000000003,0.003,-0.057,-0.10300000000000001
1701528382.928,19.609,19.609,-19.609,-0.0006000000000000001,0.0021000000000000003,0.0078000000000000005,0.004,-0.065,-0.101
1701528382.968,19.609,19.609,-19.609,0.0001,0.0021000000000000003,-0.0033,0.0,-0.048,-0.095
1701528383.008,19.609,19.609,-19.609,0.0018000000000000002,0.0032,0.0001,-0.027,-0.059000000000000004,-0.096
1701528383.0479999,19.609,19.609,-19.609,0.0014,0.0016,0.0021000000000000003,0.007,-0.056,-0.101
1701528383.088,19.609,19.609,-19.609,0.0029000000000000002,0.0035,0.0017000000000000001,0.004,-0.051000000000000004,-0.096
1701528383.128,19.609,19.609,-19.609,0.0007,0.0035,0.0022,0.003,-0.058,-0.098
1701528383.168,19.609,19.609,-19.609,0.0015,0.0014,0.0041,0.01,-0.057,-0.101
1701528383.208,19.609,19.609,-19.609,0.001,0.0024000000000000002,-0.0016,0.004,-0.068,-0.107
1701528383.248,19.609,19.609,-19.609,0.0,0.0031000000000000003,0.0029000000000000002,0.012,-0.064,-0.10200000000000001
1701528383.2879999,19.609,19.609,-19.609,0.0005,0.0041,0.00030000000000000003,0.0,-0.078,-0.10400000000000001
1701528383.328,19.609,19.609,-19.609,-0.0012000000000000001,0.0016,0.001,0.0,-0.08,-0.117
1701528383.368,19.609,19.609,-19.609,0.0029000000000000002,0.002,0.008700000000000001,0.015,-0.064,-0.1
1701528383.408,19.609,19.609,-19.609,0.0023,0.002,-0.0054,-0.001,-0.07100000000000001,-0.10300000000000001
1701528383.448,19.609,19.609,-19.609,0.0017000000000000001,0.0007,-0.0029000000000000002,-0.013000000000000001,-0.043000000000000003,-0.113
1701528383.488,19.609,19.609,-19.609,0.0006000000000000001,0.0041,-0.0007,-0.008,-0.05,-0.107
1701528383.5279999,19.609,19.609,-19.609,0.0023,0.0023,0.0038,-0.011,-0.05,-0.12
1701528383.568,19.609,19.609,-19.609,-0.0002,0.0028,0.0044,-0.011,-0.049,-0.117
1701528383.608,19.609,19.609,-19.609,0.001,0.0023,0.0017000000000000001,-0.013000000000000001,-0.063,-0.11
1701528383.648,19.609,19.609,-19.609,0.001,0.0007,0.0,-0.013000000000000001,-0.065,-0.111
1701528383.688,19.609,19.609,-19.609,0.0025,0.0021000000000000003,0.002,-0.011,-0.07,-0.113
1701528383.728,19.609,19.609,-19.609,0.0025,-0.0001,0.006900000000000001,-0.006,-0.069,-0.114
1701528383.768,19.609,19.609,-19.609,0.0018000000000000002,0.0023,-0.0068000000000000005,-0.006,-0.057,-0.116
1701528383.808,19.609,19.609,-19.609,0.0007,0.0,-0.003,-0.009000000000000001,-0.063,-0.12
1701528383.848,19.609,19.609,-19.609,0.0009000000000000001,0.0038,0.024300000000000002,-0.015,-0.052000000000000005,-0.114
1701528383.888,19.609,19.609,-19.609,0.0014,0.0026000000000000003,0.0246,-0.012,-0.053,-0.114
1701528383.928,19.609,19.609,-19.609,-0.0004,0.0032,0.0021000000000000003,-0.006,-0.052000000000000005,-0.114
1701528383.968,19.609,19.609,-19.609,0.0013000000000000002,0.0036000000000000003,0.006900000000000001,-0.013000000000000001,-0.063,-0.116
1701528384.008,19.609,19.609,-19.609,-0.0014,0.003,0.0009000000000000001,-0.004,-0.062,-0.111
1701528384.048,19.609,19.609,-19.609,0.0004,0.0045000000000000005,0.0,-0.01,-0.062,-0.122
1701528384.088,19.609,19.609,-19.609,0.0012000000000000001,0.0007,0.0014,0.005,-0.059000000000000004,-0.113
1701528384.128,19.609,19.609,-19.609,0.0009000000000000001,0.0014,0.004200000000000001,-0.002,-0.036000000000000004,-0.12
1701528384.168,19.609,19.609,-19.609,0.0001,0.0013000000000000002,0.0036000000000000003,-0.013000000000000001,-0.026000000000000002,-0.114
1701528384.208,19.609,19.609,-19.609,0.002,0.0017000000000000001,-0.0023,-0.008,-0.023,-0.11
1701528384.248,19.609,19.609,-19.609,0.002,0.0025,-0.0006000000000000001,-0.013000000000000001,-0.025,-0.106
1701528384.288,19.609,19.609,-19.609,0.002,0.0017000000000000001,-0.0051,-0.054,-0.006,-0.10400000000000001
1701528384.328,19.609,19.609,-19.609,-0.0006000000000000001,0.0017000000000000001,-0.0008,-0.006,-0.013000000000000001,-0.105
1701528384.368,19.609,19.609,-19.609,-0.0012000000000000001,0.0009000000000000001,0.0023,-0.01,0.012,-0.107
1701528384.408,19.609,19.609,-19.609,0.0012000000000000001,0.0014,0.007500000000000001,-0.007,-0.033,-0.10400000000000001
1701528384.448,19.609,19.609,-19.609,0.0,0.0027,0.0058000000000000005,-0.007,-0.02,-0.092
1701528384.488,19.609,19.609,-19.609,0.0018000000000000002,0.0016,-0.0015,-0.009000000000000001,-0.023,-0.093
1701528384.528,19.609,19.609,-19.609,0.002,0.0024000000000000002,0.0014,-0.001,-0.022,-0.10300000000000001
1701528384.568,19.609,19.609,-19.609,-0.0006000000000000001,0.0034000000000000002,0.0032,0.0,-0.018000000000000002,-0.10400000000000001
1701528384.608,19.609,19.609,-19.609,0.0036000000000000003,0.0014,0.0031000000000000003,-0.001,-0.027,-0.096
1701528384.648,19.609,19.609,-19.609,0.0023,0.0031000000000000003,0.0057,0.003,-0.022,-0.10200000000000001
1701528384.688,19.609,19.609,-19.609,0.0026000000000000003,0.0025,0.0031000000000000003,0.002,-0.025,-0.091
1701528384.728,19.609,19.609,-19.609,0.0007,0.0012000000000000001,0.0002,0.0,-0.023,-0.095
1701528384.768,19.609,19.609,-19.609,0.0,0.0,0.0056,0.003,-0.034,-0.09
1701528384.8079998,19.609,19.609,-19.609,0.0025,0.003,0.0021000000000000003,0.002,-0.051000000000000004,-0.08
1701528384.848,19.609,19.609,-19.609,0.0024000000000000002,0.0024000000000000002,-0.0043,-0.002,-0.009000000000000001,-0.07100000000000001
1701528384.888,19.609,19.609,-19.609,0.0014,0.0022,0.0012000000000000001,-0.006,0.001,-0.08600000000000001
1701528384.928,19.609,19.609,-19.609,0.0015,0.0028,-0.0064,0.0,-0.006,-0.08
1701528384.968,19.609,19.609,-19.609,-0.0017000000000000001,0.0017000000000000001,0.004200000000000001,0.002,-0.009000000000000001,-0.07100000000000001
1701528385.008,19.609,19.609,-19.609,0.0031000000000000003,0.0017000000000000001,0.0006000000000000001,-0.009000000000000001,0.001,-0.085
1701528385.0479999,19.609,19.609,-19.609,0.0029000000000000002,0.0028,0.0043,0.003,-0.014,-0.076
1701528385.088,19.609,19.609,-19.609,0.0014,0.0019,-0.0098,0.0,-0.019,-0.07
1701528385.128,19.609,19.609,-19.609,0.002,0.0025,0.005,0.003,-0.013000000000000001,-0.074
1701528385.168,19.609,19.609,-19.609,0.001,0.0021000000000000003,0.00030000000000000003,0.007,-0.016,-0.082
1701528385.208,19.609,19.609,-19.609,-0.001,0.0009000000000000001,0.0053,0.01,-0.023,-0.08700000000000001
1701528385.248,19.609,19.609,-19.609,0.0006000000000000001,0.0031000000000000003,-0.0023,0.004,-0.023,-0.082
1701528385.2879999,19.609,19.609,-19.609,0.0029000000000000002,0.0021000000000000003,0.0009000000000000001,0.0,-0.021,-0.089
1701528385.328,19.609,19.609,-19.609,0.0034000000000000002,0.0021000000000000003,0.004200000000000001,0.003,-0.029,-0.093
1701528385.368,19.609,19.609,-19.609,0.0017000000000000001,0.0023,0.004,0.003,-0.038,-0.08600000000000001
1701528385.408,19.609,19.609,-19.609,0.0023,0.0026000000000000003,-0.002,-0.004,-0.04,-0.092
1701528385.448,19.609,19.609,-19.609,0.0019,0.004200000000000001,0.0083,0.001,-0.04,-0.092
1701528385.488,19.609,19.609,-19.609,0.0013000000000000002,0.0028,-0.015600000000000001,-0.005,-0.035,-0.10400000000000001
1701528385.5279999,19.609,19.609,-19.609,0.0022,0.0036000000000000003,0.006,0.008,-0.053,-0.09
1701528385.568,19.609,19.609,-19.609,0.0027,0.0005,0.0001,0.0,-0.049,-0.095
1701528385.608,19.609,19.609,-19.609,0.0049,0.0023,-0.0125,-0.01,-0.032,-0.111
1701528385.648,19.609,19.609,-19.609,0.0026000000000000003,0.004,-0.0059,-0.004,-0.028,-0.105
1701528385.688,19.609,19.609,-19.609,0.0014,0.0,-0.0024000000000000002,-0.016,-0.03,-0.108
1701528385.728,19.609,19.609,-19.609,-0.0009000000000000001,0.0023,-0.002,-0.018000000000000002,-0.024,-0.10200000000000001
1701528385.768,19.609,19.609,-19.609,0.0,0.0007,0.0024000000000000002,-0.018000000000000002,-0.03,-0.1
1701528385.808,19.609,19.609,-19.609,0.0,0.0007,-0.0014,-0.022,-0.034,-0.093
1701528385.848,19.609,19.609,-19.609,0.0013000000000000002,0.0022,0.0036000000000000003,-0.025,-0.036000000000000004,-0.096
1701528385.888,19.609,19.609,-19.609,-0.0004,-0.00030000000000000003,0.0053,-0.027,-0.027,-0.095
1701528385.928,19.609,19.609,-19.609,0.0017000000000000001,0.0001,0.0021000000000000003,-0.02,-0.041,-0.097
1701528385.968,19.609,19.609,-19.609,0.005,0.0028,-0.0006000000000000001,-0.018000000000000002,-0.037,-0.099
1701528386.008,19.609,19.609,-19.609,0.0009000000000000001,0.0,-0.0002,-0.022,-0.028,-0.109
1701528386.048,19.609,19.609,-19.609,0.0026000000000000003,0.0026000000000000003,0.0054,-0.01,-0.028,-0.1
1701528386.088,19.609,19.609,-19.609,0.002,0.0036000000000000003,0.0009000000000000001,-0.011,-0.029,-0.1
1701528386.128,19.609,19.609,-19.609,0.0017000000000000001,0.0031000000000000003,-0.00030000000000000003,-0.004,-0.025,-0.101
1701528386.168,19.609,19.609,-19.609,0.0001,0.0026000000000000003,-0.0031000000000000003,0.005,-0.022,-0.098
1701528386.208,19.609,19.609,-19.609,0.0061,0.0026000000000000003,-0.0013000000000000002,0.009000000000000001,-0.047,-0.099
1701528386.248,19.609,19.609,-19.609,0.0041,0.0018000000000000002,0.007500000000000001,0.014,-0.033,-0.101
1701528386.288,19.609,19.609,-19.609,0.0028,0.0035,0.007,0.019,-0.026000000000000002,-0.08700000000000001
1701528386.328,19.609,19.609,-19.609,-0.0006000000000000001,0.0014,0.0048000000000000004,0.012,-0.022,-0.095
1701528386.368,19.609,19.609,-19.609,0.0014,0.0022,0.0012000000000000001,0.004,-0.009000000000000001,-0.109
1701528386.408,19.609,19.609,-19.609,0.0006000000000000001,0.0008,0.0028,0.005,-0.023,-0.093
1701528386.448,19.609,19.609,-19.609,-0.001,0.00030000000000000003,0.0032,0.002,-0.027,-0.089
1701528386.488,19.609,19.609,-19.609,0.0022,0.004200000000000001,0.0018000000000000002,-0.001,-0.028,-0.099
1701528386.528,19.609,19.609,-19.609,0.0018000000000000002,0.0031000000000000003,-0.0032,0.0,-0.017,-0.10300000000000001
1701528386.568,19.609,19.609,-19.609,0.0025,0.0028,-0.0027,0.007,-0.017,-0.089
1701528386.608,19.609,19.609,-19.609,0.0015,0.0032,0.0068000000000000005,-0.023,-0.035,-0.093
1701528386.648,19.609,19.609,-19.609,0.0001,0.0015,-0.0014,0.002,-0.032,-0.098
1701528386.688,19.609,19.609,-19.609,0.0039000000000000003,0.0015,-0.0008,0.005,-0.043000000000000003,-0.093
1701528386.728,19.609,19.609,-19.609,0.0017000000000000001,0.0001,0.0026000000000000003,0.012,-0.041,-0.098
1701528386.768,19.609,19.609,-19.609,0.0015,0.0023,0.001,0.001,-0.038,-0.10300000000000001
1701528386.8079998,19.609,19.609,-19.609,0.0012000000000000001,0.0034000000000000002,0.0054,0.003,-0.047,-0.097
1701528386.848,19.609,19.609,-19.609,0.0036000000000000003,0.0008,0.0061,0.002,-0.054,-0.1
1701528386.888,19.609,19.609,-19.609,0.0012000000000000001,0.0046,0.0051,0.004,-0.057,-0.1
1701528386.928,19.609,19.609,-19.609,0.0014,0.0036000000000000003,-0.0012000000000000001,-0.001,-0.058,-0.098
1701528386.968,19.609,19.609,-19.609,0.0023,0.0031000000000000003,0.004,0.004,-0.056,-0.094
1701528387.008,19.609,19.609,-19.609,0.0021000000000000003,0.00030000000000000003,0.0025,0.0,-0.05,-0.088
1701528387.0479999,19.609,19.609,-19.609,0.0051,0.0018000000000000002,-0.0016,0.007,-0.054,-0.083
1701528387.088,19.609,19.609,-19.609,0.0029000000000000002,0.0041,-0.0033,0.0,-0.04,-0.097
1701528387.128,19.609,19.609,-19.609,0.0017000000000000001,0.0034000000000000002,-0.0017000000000000001,-0.005,-0.033,-0.097
1701528387.168,19.609,19.609,-19.609,0.00030000000000000003,0.0019,-0.0017000000000000001,-0.002,-0.036000000000000004,-0.093
1701528387.208,19.609,19.609,-19.609,0.0017000000000000001,0.0039000000000000003,0.0021000000000000003,0.003,-0.032,-0.091
1701528387.248,19.609,19.609,-19.609,0.0021000000000000003,0.0026000000000000003,-0.0058000000000000005,-0.004,-0.024,-0.093
1701528387.2879999,19.609,19.609,-19.609,0.0025,0.0028,0.013000000000000001,0.005,-0.031,-0.1
1701528387.328,19.609,19.609,-19.609,-0.0001,0.0022,0.0128,0.007,-0.04,-0.094
1701528387.368,19.609,19.609,-19.609,0.0037,0.0059,0.0097,0.0,-0.029,-0.10200000000000001
1701528387.408,19.609,19.609,-19.609,0.0017000000000000001,0.0016,0.0043,0.008,-0.038,-0.1
1701528387.448,19.609,19.609,-19.609,-0.0002,0.0037,0.0026000000000000003,0.007,-0.035,-0.10200000000000001
1701528387.488,19.609,19.609,-19.609,0.0022,0.0004,0.00030000000000000003,0.005,-0.034,-0.114
1701528387.5279999,19.609,19.609,-19.609,0.0009000000000000001,0.0033,0.003,0.002,-0.036000000000000004,-0.109
1701528387.568,19.609,19.609,-19.609,0.0009000000000000001,0.0007,-0.0018000000000000002,-0.003,-0.044,-0.108
1701528387.608,19.609,19.609,-19.609,0.0004,0.0022,0.0029000000000000002,-0.004,-0.048,-0.112
1701528387.648,19.609,19.609,-19.609,0.0013000000000000002,0.0055000000000000005,-0.0018000000000000002,-0.004,-0.049,-0.105
1701528387.688,19.609,19.609,-19.609,0.0027,0.0029000000000000002,-0.001,-0.011,-0.044,-0.105
1701528387.728,19.609,19.609,-19.609,0.0029000000000000002,0.0022,-0.004,-0.015,-0.049,-0.112
1701528387.768,19.609,19.609,-19.609,0.001,0.004,-0.0031000000000000003,-0.008,-0.053,-0.10400000000000001
1701528387.808,19.609,19.609,-19.609,0.0023,0.0004,0.0037,-0.003,-0.057,-0.10400000000000001
1701528387.848,19.609,19.609,-19.609,0.0015,0.0046,-0.0053,-0.007,-0.049,-0.10200000000000001
1701528387.888,19.609,19.609,-19.609,0.0014,0.0028,0.0053,-0.006,-0.041,-0.114
1701528387.928,19.609,19.609,-19.609,-0.0001,0.0012000000000000001,0.004200000000000001,-0.008,-0.05,-0.107
1701528387.968,19.609,19.609,-19.609,0.0005,0.0029000000000000002,0.0019,0.0,-0.059000000000000004,-0.101
1701528388.008,19.609,19.609,-19.609,0.0025,0.0008,0.0033,-0.005,-0.04,-0.113
1701528388.048,19.609,19.609,-19.609,0.0014,0.0034000000000000002,0.008700000000000001,-0.001,-0.05,-0.106
1701528388.088,19.609,19.609,-19.609,0.0007,0.0023,0.0029000000000000002,-0.003,-0.047,-0.109
1701528388.128,19.609,19.609,-19.609,0.002,0.0019,-0.0032,-0.006,-0.042,-0.10400000000000001
1701528388.168,19.609,19.609,-19.609,0.0014,0.0009000000000000001,-0.0001,-0.006,-0.055,-0.098
1701528388.208,19.609,19.609,-19.609,0.0004,0.005,0.0021000000000000003,-0.009000000000000001,-0.056,-0.10400000000000001
1701528388.248,19.609,19.609,-19.609,0.0043,0.002,0.0068000000000000005,-0.013000000000000001,-0.05,-0.109
1701528388.288,19.609,19.609,-19.609,0.0037,0.0008,0.0044,-0.018000000000000002,-0.047,-0.097
1701528388.328,19.609,19.609,-19.609,0.0006000000000000001,0.0015,-0.0053,-0.014,-0.042,-0.095
1701528388.368,19.609,19.609,-19.609,0.0023,0.0037,0.0015,-0.021,-0.033,-0.093
1701528388.408,19.609,19.609,-19.609,0.001,0.0025,-0.0023,-0.024,-0.032,-0.092
1701528388.448,19.609,19.609,-19.609,0.0021000000000000003,0.0012000000000000001,0.0028,-0.005,-0.04,-0.08700000000000001
1701528388.488,19.609,19.609,-19.609,0.0022,0.0021000000000000003,-0.00030000000000000003,-0.029,-0.04,-0.091
1701528388.528,19.609,19.609,-19.609,0.0038,0.0038,-0.0009000000000000001,-0.006,-0.041,-0.089
1701528388.568,19.609,19.609,-19.609,0.0009000000000000001,0.0037,0.0005,-0.022,-0.042,-0.094
1701528388.608,19.609,19.609,-19.609,0.0004,0.0009000000000000001,0.0008,-0.023,-0.02,-0.10300000000000001
1701528388.648,19.609,19.609,-19.609,0.0021000000000000003,0.0014,0.0078000000000000005,-0.01,-0.03,-0.095
1701528388.688,19.609,19.609,-19.609,0.0028,0.0041,0.0018000000000000002,-0.005,-0.039,-0.095
1701528388.728,19.609,19.609,-19.609,-0.0006000000000000001,0.0002,0.0015,0.004,-0.024,-0.108
1701528388.768,19.609,19.609,-19.609,0.0017000000000000001,0.0043,0.01,0.013000000000000001,-0.023,-0.10400000000000001
1701528388.8079998,19.609,19.609,-19.609,0.0029000000000000002,0.001,0.0054,0.013000000000000001,-0.032,-0.108
1701528388.848,19.609,19.609,-19.609,0.002,0.0037,-0.0009000000000000001,0.022,-0.033,-0.112
1701528388.888,19.609,19.609,-19.609,0.0029000000000000002,0.0023,0.0081,0.019,-0.037,-0.113
1701528388.928,19.609,19.609,-19.609,-0.0001,0.0027,-0.0058000000000000005,0.023,-0.034,-0.115
1701528388.968,19.609,19.609,-19.609,0.0021000000000000003,0.0017000000000000001,0.0053,0.017,-0.034,-0.114
1701528389.008,19.609,19.609,-19.609,0.0021000000000000003,0.0014,-0.010400000000000001,0.017,-0.038,-0.107
1701528389.0479999,19.609,19.609,-19.609,0.0026000000000000003,0.0033,0.0039000000000000003,0.006,-0.04,-0.101
1701528389.088,19.609,19.609,-19.609,0.0018000000000000002,0.0009000000000000001,0.0103,0.008,-0.045,-0.101
