timestamp,acc_x,acc_y,acc_z,magn_x,magn_y,magn_z,gyro_x,gyro_y,gyro_z
1701527933.719,19.609,19.609,-19.609,0.0018000000000000002,0.0007,-0.0004,0.516,0.169,-0.269
1701527933.759,19.609,19.609,-19.609,0.0008,0.0011,0.0007,-0.445,-0.016,0.398
1701527933.799,19.609,19.609,-19.609,0.0015,0.0019,-0.0032,-0.446,-0.02,0.394
1701527933.839,19.609,19.609,-19.609,0.0009000000000000001,0.0029000000000000002,-0.007,-0.404,-0.08700000000000001,0.369
1701527933.879,19.609,19.609,-19.609,-0.00030000000000000003,0.00030000000000000003,0.009000000000000001,-0.381,-0.226,0.34500000000000003
1701527933.919,19.609,19.609,-19.609,-0.0017000000000000001,0.0017000000000000001,-0.0004,-0.47800000000000004,-0.225,0.318
1701527933.959,19.609,19.609,-19.609,0.0009000000000000001,0.0015,0.0129,-0.5700000000000001,-0.189,0.336
1701527933.999,19.609,19.609,-19.609,-0.0006000000000000001,0.0038,0.0142,-0.591,-0.258,0.267
1701527934.039,19.609,19.609,-19.609,0.0006000000000000001,0.0044,0.0032,-0.47800000000000004,-0.192,0.179
1701527934.079,19.609,19.609,-19.609,0.0004,0.0017000000000000001,-0.0025,-0.317,-0.179,0.134
1701527934.119,19.609,19.609,-19.609,-0.0008,-0.0018000000000000002,-0.0023,-0.326,-0.024,0.018000000000000002
1701527934.159,19.609,19.609,-19.609,0.0005,0.0029000000000000002,0.0122,-0.393,-0.035,0.057
1701527934.199,19.609,19.609,-19.609,-0.00030000000000000003,0.0037,0.0145,-0.449,-0.224,0.159
1701527934.2389998,19.609,19.609,-19.609,0.0006000000000000001,0.0031000000000000003,0.0054,-0.451,-0.392,0.184
1701527934.279,19.609,19.609,-19.609,0.0014,0.0,0.0012000000000000001,-0.333,-0.079,0.224
1701527934.319,19.609,19.609,-19.609,-0.0006000000000000001,0.0026000000000000003,0.0043,-0.31,0.198,0.23800000000000002
1701527934.359,19.609,19.609,-19.609,0.0018000000000000002,0.00030000000000000003,0.0044,-0.291,0.267,0.281
1701527934.399,19.609,19.609,-19.609,-0.0014,0.0039000000000000003,0.0046,-0.21,0.213,0.381
1701527934.439,19.609,19.609,-19.609,-0.0004,0.0025,0.001,-0.153,0.14,0.389
1701527934.4789999,19.609,19.609,-19.609,-0.0006000000000000001,0.00030000000000000003,0.0083,-0.121,0.26,0.361
1701527934.519,19.609,19.609,-19.609,0.00030000000000000003,0.0034000000000000002,-0.0004,-0.153,0.278,0.301
1701527934.559,19.609,19.609,-19.609,0.0007,0.0001,0.005,-0.096,0.357,0.223
1701527934.599,19.609,19.609,-19.609,0.0,0.0034000000000000002,0.0032,-0.023,0.317,0.14300000000000002
1701527934.639,19.609,19.609,-19.609,-0.0001,0.0037,0.0054,0.048,0.256,-0.006
1701527934.679,19.609,19.609,-19.609,-0.0002,-0.00030000000000000003,0.0028,0.082,0.332,-0.092
1701527934.7189999,19.609,19.609,-19.609,0.0026000000000000003,0.0009000000000000001,0.0006000000000000001,0.18,0.35000000000000003,-0.212
1701527934.759,19.609,19.609,-19.609,0.0019,0.0023,-0.009300000000000001,0.273,0.188,-0.357
1701527934.799,19.609,19.609,-19.609,0.0016,-0.0001,0.0241,0.196,0.46900000000000003,-0.433
1701527934.839,19.609,19.609,-19.609,0.00030000000000000003,0.0023,-0.001,0.168,0.399,-0.521
1701527934.879,19.609,19.609,-19.609,0.0015,0.0,0.0061,0.265,0.217,-0.585
1701527934.919,19.609,19.609,-19.609,0.0001,0.0023,0.0009000000000000001,0.281,0.067,-0.5760000000000001
1701527934.9589999,19.609,19.609,-19.609,0.0002,0.0027,0.0025,0.321,-0.115,-0.538
1701527934.999,19.609,19.609,-19.609,0.0018000000000000002,-0.001,0.0028,0.405,-0.093,-0.49
1701527935.039,19.609,19.609,-19.609,-0.001,0.0025,0.0162,0.52,-0.106,-0.525
1701527935.079,19.609,19.609,-19.609,0.0006000000000000001,0.0015,0.0029000000000000002,0.55,-0.03,-0.523
1701527935.119,19.609,19.609,-19.609,0.0034000000000000002,0.002,0.0079,0.547,0.044,-0.586
1701527935.159,19.609,19.609,-19.609,0.00030000000000000003,0.0017000000000000001,0.0017000000000000001,0.464,0.074,-0.606
1701527935.199,19.609,19.609,-19.609,0.0004,0.0015,-0.0039000000000000003,0.364,0.094,-0.619
1701527935.239,19.609,19.609,-19.609,0.0015,0.00030000000000000003,0.019700000000000002,0.389,0.137,-0.661
1701527935.279,19.609,19.609,-19.609,0.002,0.0024000000000000002,0.004,0.467,0.066,-0.78
1701527935.319,19.609,19.609,-19.609,-0.0004,0.0029000000000000002,-0.0318,0.791,0.273,-1.075
1701527935.359,19.609,19.609,-19.609,-0.0006000000000000001,0.001,0.0189,1.466,0.527,-1.512
1701527935.399,19.609,19.609,-19.609,-0.001,0.0027,-0.024300000000000002,2.072,0.5680000000000001,-1.585
1701527935.439,19.609,19.609,-19.609,-0.00030000000000000003,0.0011,-0.0058000000000000005,2.229,0.55,-1.602
1701527935.479,19.609,19.609,-19.609,-0.0006000000000000001,0.0,0.0039000000000000003,1.835,0.44,-1.413
1701527935.519,19.609,19.609,-19.609,0.0021000000000000003,-0.0004,-0.0004,1.434,0.164,-1.085
1701527935.559,19.609,19.609,-19.609,0.0,0.0012000000000000001,-0.0016,1.106,0.052000000000000005,-0.908
1701527935.599,19.609,19.609,-19.609,-0.0012000000000000001,-0.0002,-0.007500000000000001,0.811,0.115,-0.731
1701527935.639,19.609,19.609,-19.609,-0.0007,-0.002,0.009600000000000001,0.682,-0.007,-0.62
1701527935.679,19.609,19.609,-19.609,-0.0015,-0.0002,0.0082,0.425,-0.058,-0.507
1701527935.719,19.609,19.609,-19.609,0.00030000000000000003,0.0011,0.0027,0.325,-0.083,-0.405
1701527935.759,19.609,19.609,-19.609,0.0023,-0.0005,0.008,0.263,-0.11,-0.303
1701527935.799,19.609,19.609,-19.609,-0.0017000000000000001,0.0012000000000000001,0.0094,0.203,-0.19,-0.255
1701527935.839,19.609,19.609,-19.609,0.0,0.0019,-0.018600000000000002,0.094,-0.155,-0.251
1701527935.879,19.609,19.609,-19.609,-0.001,-0.00030000000000000003,0.035300000000000005,0.036000000000000004,-0.123,-0.23500000000000001
1701527935.919,19.609,19.609,-19.609,0.0009000000000000001,0.0021000000000000003,-0.0056,-0.032,0.008,-0.213
1701527935.959,19.609,19.609,-19.609,0.0,0.0024000000000000002,0.0017000000000000001,-0.066,0.041,-0.155
1701527935.999,19.609,19.609,-19.609,-0.0022,0.0001,-0.0043,-0.07,0.05,-0.125
1701527936.039,19.609,19.609,-19.609,-0.001,-0.0005,0.011000000000000001,-0.059000000000000004,0.062,-0.106
1701527936.079,19.609,19.609,-19.609,0.0012000000000000001,0.0029000000000000002,-0.0117,-0.055,0.032,-0.10200000000000001
1701527936.119,19.609,19.609,-19.609,0.002,0.0004,0.0039000000000000003,-0.045,0.025,-0.099
1701527936.159,19.609,19.609,-19.609,0.0007,0.0015,0.0017000000000000001,-0.058,-0.005,-0.113
1701527936.199,19.609,19.609,-19.609,0.0,-0.0014,0.0031000000000000003,-0.043000000000000003,-0.052000000000000005,-0.05
1701527936.2389998,19.609,19.609,-19.609,-0.0005,-0.0005,-0.0088,-0.053,-0.074,-0.042
1701527936.279,19.609,19.609,-19.609,-0.0017000000000000001,0.0004,-0.0007,-0.043000000000000003,-0.093,-0.043000000000000003
1701527936.319,19.609,19.609,-19.609,-0.0023,-0.0002,-0.00030000000000000003,-0.052000000000000005,-0.08700000000000001,-0.042
1701527936.359,19.609,19.609,-19.609,0.0,0.0,-0.0194,-0.059000000000000004,-0.047,-0.04
1701527936.399,19.609,19.609,-19.609,0.0006000000000000001,0.0018000000000000002,0.0449,-0.075,-0.013000000000000001,-0.036000000000000004
1701527936.439,19.609,19.609,-19.609,-0.00030000000000000003,0.0011,-0.0031000000000000003,-0.114,-0.011,-0.026000000000000002
1701527936.4789999,19.609,19.609,-19.609,-0.0015,0.0013000000000000002,-0.0176,-0.124,-0.017,0.003
1701527936.519,19.609,19.609,-19.609,0.0001,-0.00030000000000000003,0.0039000000000000003,-0.148,-0.02,0.028
1701527936.559,19.609,19.609,-19.609,-0.0017000000000000001,0.0009000000000000001,0.0164,-0.14,-0.008,0.047
1701527936.599,19.609,19.609,-19.609,0.0021000000000000003,-0.0006000000000000001,0.0036000000000000003,-0.15,-0.021,0.049
1701527936.639,19.609,19.609,-19.609,0.0009000000000000001,0.0,0.0068000000000000005,-0.14300000000000002,-0.022,0.047
1701527936.679,19.609,19.609,-19.609,0.0009000000000000001,0.0008,-0.0175,-0.132,-0.035,0.039
1701527936.7189999,19.609,19.609,-19.609,0.0005,0.0004,0.030600000000000002,-0.12,-0.022,0.034
1701527936.759,19.609,19.609,-19.609,0.0,0.0,-0.0233,-0.10400000000000001,0.011,0.025
1701527936.799,19.609,19.609,-19.609,0.0006000000000000001,0.0025,0.0158,-0.096,-0.005,0.003
1701527936.839,19.609,19.609,-19.609,0.0008,0.0023,-0.013000000000000001,-0.08700000000000001,-0.021,-0.02
1701527936.879,19.609,19.609,-19.609,0.0023,0.0001,0.013800000000000002,-0.078,-0.028,-0.029
1701527936.919,19.609,19.609,-19.609,-0.0026000000000000003,-0.00030000000000000003,-0.0039000000000000003,-0.066,-0.04,-0.041
1701527936.9589999,19.609,19.609,-19.609,-0.00030000000000000003,0.0023,0.0029000000000000002,-0.058,-0.038,-0.042
1701527936.999,19.609,19.609,-19.609,-0.0008,0.00030000000000000003,-0.0161,-0.056,-0.061,-0.047
1701527937.039,19.609,19.609,-19.609,0.0001,0.0,0.0324,-0.053,-0.09,-0.068
1701527937.079,19.609,19.609,-19.609,0.0018000000000000002,0.0017000000000000001,0.0001,-0.055,-0.105,-0.043000000000000003
1701527937.119,19.609,19.609,-19.609,-0.0007,0.0012000000000000001,-0.028,-0.053,-0.096,-0.04
1701527937.159,19.609,19.609,-19.609,-0.0006000000000000001,0.0023,0.0631,-0.054,-0.08,-0.059000000000000004
1701527937.199,19.609,19.609,-19.609,-0.0004,0.0022,0.0183,-0.054,-0.073,-0.067
1701527937.239,19.609,19.609,-19.609,-0.0012000000000000001,0.0001,0.0068000000000000005,-0.05,-0.083,-0.074
1701527937.279,19.609,19.609,-19.609,0.0012000000000000001,0.001,-0.0079,-0.057,-0.091,-0.068
1701527937.319,19.609,19.609,-19.609,0.0007,0.00030000000000000003,0.014,-0.052000000000000005,-0.08700000000000001,-0.06
1701527937.359,19.609,19.609,-19.609,-0.0006000000000000001,0.0021000000000000003,-0.0025,-0.056,-0.109,-0.048
1701527937.399,19.609,19.609,-19.609,-0.0007,0.0048000000000000004,-0.0006000000000000001,-0.066,-0.108,-0.055
1701527937.439,19.609,19.609,-19.609,-0.0025,-0.0001,-0.0094,-0.061,-0.112,-0.055
1701527937.479,19.609,19.609,-19.609,-0.0001,-0.0007,0.0155,-0.061,-0.121,-0.052000000000000005
1701527937.519,19.609,19.609,-19.609,-0.0017000000000000001,0.0007,-0.0137,-0.055,-0.116,-0.038
1701527937.559,19.609,19.609,-19.609,0.0013000000000000002,0.0012000000000000001,0.0241,-0.058,-0.117,-0.04
1701527937.599,19.609,19.609,-19.609,0.0021000000000000003,0.0009000000000000001,-0.0098,-0.069,-0.14,-0.034
1701527937.639,19.609,19.609,-19.609,0.0,0.0016,0.0045000000000000005,-0.057,-0.126,-0.044
1701527937.679,19.609,19.609,-19.609,-0.001,0.002,0.0038,-0.056,-0.108,-0.051000000000000004
1701527937.719,19.609,19.609,-19.609,-0.0012000000000000001,-0.0006000000000000001,0.0054,-0.04,-0.10200000000000001,-0.064
1701527937.759,19.609,19.609,-19.609,-0.0028,0.0009000000000000001,0.007,-0.031,-0.114,-0.074
1701527937.799,19.609,19.609,-19.609,0.0009000000000000001,0.0026000000000000003,-0.019700000000000002,-0.031,-0.117,-0.081
1701527937.839,19.609,19.609,-19.609,-0.0018000000000000002,0.0017000000000000001,0.036000000000000004,-0.011,-0.092,-0.088
1701527937.879,19.609,19.609,-19.609,0.0021000000000000003,0.0013000000000000002,-0.00030000000000000003,-0.014,-0.091,-0.084
1701527937.919,19.609,19.609,-19.609,0.00030000000000000003,0.00030000000000000003,-0.0044,-0.014,-0.051000000000000004,-0.098
1701527937.959,19.609,19.609,-19.609,0.00030000000000000003,0.0,-0.0012000000000000001,-0.011,-0.042,-0.111
1701527937.999,19.609,19.609,-19.609,-0.0001,-0.0036000000000000003,0.0213,-0.024,-0.021,-0.099
1701527938.039,19.609,19.609,-19.609,0.0007,-0.0006000000000000001,-0.0034000000000000002,-0.015,-0.012,-0.093
1701527938.079,19.609,19.609,-19.609,0.0,0.0012000000000000001,-0.0029000000000000002,-0.013000000000000001,-0.018000000000000002,-0.10300000000000001
1701527938.119,19.609,19.609,-19.609,-0.0005,-0.0001,0.0033,-0.008,-0.009000000000000001,-0.094
1701527938.159,19.609,19.609,-19.609,0.0014,0.0018000000000000002,-0.0233,-0.002,-0.021,-0.10400000000000001
1701527938.199,19.609,19.609,-19.609,0.00030000000000000003,0.0011,0.0315,0.004,-0.032,-0.111
1701527938.2389998,19.609,19.609,-19.609,0.0006000000000000001,0.0011,0.0095,0.02,-0.031,-0.115
1701527938.279,19.609,19.609,-19.609,0.0004,0.002,0.0014,0.007,-0.03,-0.108
1701527938.319,19.609,19.609,-19.609,-0.00030000000000000003,0.0005,0.0045000000000000005,0.01,-0.046,-0.115
1701527938.359,19.609,19.609,-19.609,0.0004,0.0016,-0.0053,0.009000000000000001,-0.06,-0.105
1701527938.399,19.609,19.609,-19.609,0.00030000000000000003,0.0015,-0.0007,-0.001,-0.057,-0.093
1701527938.439,19.609,19.609,-19.609,-0.0014,0.0007,-0.0067,-0.01,-0.053,-0.085
1701527938.4789999,19.609,19.609,-19.609,-0.0004,-0.0001,0.0074,-0.007,-0.052000000000000005,-0.09
1701527938.519,19.609,19.609,-19.609,0.00030000000000000003,0.0012000000000000001,0.0236,-0.003,-0.052000000000000005,-0.085
1701527938.559,19.609,19.609,-19.609,-0.0002,0.0021000000000000003,-0.0137,-0.003,-0.063,-0.075
1701527938.599,19.609,19.609,-19.609,-0.001,0.0044,0.011300000000000001,-0.015,-0.069,-0.084
1701527938.639,19.609,19.609,-19.609,-0.003,0.0,0.0001,-0.019,-0.073,-0.06
1701527938.679,19.609,19.609,-19.609,-0.0018000000000000002,-0.0022,-0.0067,-0.026000000000000002,-0.07100000000000001,-0.053
1701527938.7189999,19.609,19.609,-19.609,-0.002,0.0005,0.0132,-0.041,-0.048,-0.052000000000000005
1701527938.759,19.609,19.609,-19.609,-0.0007,-0.0012000000000000001,0.0006000000000000001,-0.053,-0.035,-0.044
1701527938.799,19.609,19.609,-19.609,0.0008,-0.0009000000000000001,0.010100000000000001,-0.06,-0.007,-0.047
1701527938.839,19.609,19.609,-19.609,-0.0001,0.0006000000000000001,-0.0009000000000000001,-0.048,-0.004,-0.042
1701527938.879,19.609,19.609,-19.609,0.0004,0.0025,0.008700000000000001,-0.047,-0.019,-0.039
1701527938.919,19.609,19.609,-19.609,-0.00030000000000000003,-0.0005,-0.0218,-0.048,-0.044,-0.034
1701527938.9589999,19.609,19.609,-19.609,0.0018000000000000002,-0.0002,0.0274,-0.062,-0.051000000000000004,-0.026000000000000002
1701527938.999,19.609,19.609,-19.609,-0.0001,0.00030000000000000003,-0.0137,-0.066,-0.055,-0.006
1701527939.039,19.609,19.609,-19.609,0.0004,0.0014,0.0408,-0.07100000000000001,-0.047,0.002
1701527939.079,19.609,19.609,-19.609,-0.0022,0.002,-0.0184,-0.073,-0.052000000000000005,-0.002
1701527939.119,19.609,19.609,-19.609,0.0018000000000000002,0.0009000000000000001,-0.0151,-0.081,-0.047,0.009000000000000001
1701527939.159,19.609,19.609,-19.609,-0.0014,0.0028,0.0449,-0.088,-0.041,0.016
1701527939.199,19.609,19.609,-19.609,0.00030000000000000003,-0.0014,-0.002,-0.098,-0.057,0.009000000000000001
1701527939.239,19.609,19.609,-19.609,0.0007,0.00030000000000000003,0.0007,-0.106,-0.058,0.021
1701527939.279,19.609,19.609,-19.609,-0.00030000000000000003,0.0021000000000000003,-0.0117,-0.108,-0.056,0.031
1701527939.319,19.609,19.609,-19.609,-0.0032,0.0034000000000000002,0.0013000000000000002,-0.106,-0.064,0.027
1701527939.359,19.609,19.609,-19.609,0.0,0.0009000000000000001,-0.0051,-0.11,-0.07200000000000001,0.025
1701527939.399,19.609,19.609,-19.609,-0.0016,0.0028,0.0349,-0.09,-0.05,0.068
1701527939.439,19.609,19.609,-19.609,-0.0014,-0.0012000000000000001,-0.006500000000000001,-0.1,-0.065,0.083
1701527939.479,19.609,19.609,-19.609,-0.0007,0.0014,0.0006000000000000001,-0.11900000000000001,-0.08700000000000001,0.123
1701527939.519,19.609,19.609,-19.609,0.0004,0.0021000000000000003,0.0095,-0.14100000000000001,-0.107,0.152
1701527939.559,19.609,19.609,-19.609,-0.001,0.0028,-0.006500000000000001,-0.254,-0.181,0.281
1701527939.599,19.609,19.609,-19.609,-0.0006000000000000001,0.0001,-0.0001,-0.298,-0.216,0.316
1701527939.639,19.609,19.609,-19.609,0.0008,0.0,0.0032,-0.332,-0.229,0.37
1701527939.679,19.609,19.609,-19.609,0.0007,-0.0001,0.0086,-0.40700000000000003,-0.28700000000000003,0.41400000000000003
1701527939.719,19.609,19.609,-19.609,0.0021000000000000003,0.002,-0.013600000000000001,-0.654,-0.326,0.664
1701527939.759,19.609,19.609,-19.609,0.0034000000000000002,0.0021000000000000003,0.030100000000000002,-0.512,-0.322,0.523
1701527939.799,19.609,19.609,-19.609,-0.0001,0.0006000000000000001,0.0039000000000000003,-0.484,-0.354,0.543
1701527939.839,19.609,19.609,-19.609,0.0001,0.0008,-0.0023,-0.486,-0.398,0.522
1701527939.879,19.609,19.609,-19.609,-0.0001,0.0051,-0.012,-0.339,-0.459,0.451
1701527939.919,19.609,19.609,-19.609,0.0,0.0025,0.0196,-0.342,-0.434,0.40800000000000003
1701527939.959,19.609,19.609,-19.609,0.0015,0.0013000000000000002,0.0023,-0.387,-0.43,0.388
1701527939.999,19.609,19.609,-19.609,0.0006000000000000001,0.0014,0.0059,-0.34600000000000003,-0.396,0.295
1701527940.039,19.609,19.609,-19.609,-0.0012000000000000001,0.0035,0.0007,-0.291,-0.421,0.225
1701527940.079,19.609,19.609,-19.609,0.001,0.0013000000000000002,-0.0078000000000000005,-0.28600000000000003,-0.374,0.197
1701527940.119,19.609,19.609,-19.609,0.0007,0.0007,0.038900000000000004,-0.268,-0.308,0.165
1701527940.159,19.609,19.609,-19.609,0.0081,0.0027,-0.006500000000000001,-0.262,-0.209,0.129
1701527940.199,19.609,19.609,-19.609,-0.0015,0.0016,-0.0031000000000000003,-0.243,-0.171,0.127
1701527940.2389998,19.609,19.609,-19.609,-0.0013000000000000002,0.0,0.020200000000000003,-0.229,-0.085,0.11800000000000001
1701527940.279,19.609,19.609,-19.609,-0.0016,0.0023,-0.0006000000000000001,-0.241,-0.045,0.114
1701527940.319,19.609,19.609,-19.609,-0.0014,0.0036000000000000003,0.0009000000000000001,-0.241,-0.034,0.11
1701527940.359,19.609,19.609,-19.609,-0.0017000000000000001,0.0034000000000000002,0.0016,-0.23500000000000001,-0.042,0.10200000000000001
1701527940.399,19.609,19.609,-19.609,-0.001,0.0017000000000000001,0.0175,-0.214,-0.006,0.094
1701527940.439,19.609,19.609,-19.609,-0.0004,0.0006000000000000001,0.0048000000000000004,-0.184,-0.02,0.088
1701527940.4789999,19.609,19.609,-19.609,-0.0009000000000000001,0.0027,-0.0068000000000000005,-0.169,-0.015,0.074
1701527940.519,19.609,19.609,-19.609,0.0014,0.0024000000000000002,0.0026000000000000003,-0.154,-0.028,0.069
1701527940.559,19.609,19.609,-19.609,0.0007,0.0023,0.0019,-0.129,-0.032,0.045
1701527940.599,19.609,19.609,-19.609,0.0015,0.0029000000000000002,0.004200000000000001,-0.1,-0.033,0.03
1701527940.639,19.609,19.609,-19.609,-0.00030000000000000003,0.0007,0.0012000000000000001,-0.097,-0.015,0.012
1701527940.679,19.609,19.609,-19.609,0.0,0.0002,0.0164,-0.077,0.017,0.002
1701527940.7189999,19.609,19.609,-19.609,0.0004,0.0048000000000000004,0.007200000000000001,-0.08,0.015,-0.009000000000000001
1701527940.759,19.609,19.609,-19.609,0.0006000000000000001,0.0021000000000000003,0.032,-0.07100000000000001,0.013000000000000001,-0.021
1701527940.799,19.609,19.609,-19.609,0.00030000000000000003,0.0011,0.0145,-0.066,0.012,-0.033
1701527940.839,19.609,19.609,-19.609,-0.0018000000000000002,0.0039000000000000003,-0.0206,-0.053,0.0,-0.031
1701527940.879,19.609,19.609,-19.609,-0.0016,0.0004,0.014400000000000001,-0.035,-0.001,-0.06
1701527940.919,19.609,19.609,-19.609,0.0,0.0023,0.0068000000000000005,-0.026000000000000002,0.003,-0.08
1701527940.9589999,19.609,19.609,-19.609,0.0015,0.0029000000000000002,-0.001,-0.01,-0.022,-0.101
1701527940.999,19.609,19.609,-19.609,0.0009000000000000001,0.0018000000000000002,-0.0029000000000000002,0.006,-0.024,-0.107
1701527941.039,19.609,19.609,-19.609,0.0024000000000000002,0.0031000000000000003,-0.0007,0.012,0.008,-0.11
1701527941.079,19.609,19.609,-19.609,0.0001,0.0026000000000000003,0.0064,0.003,-0.007,-0.11800000000000001
1701527941.119,19.609,19.609,-19.609,0.0033,0.0034000000000000002,-0.00030000000000000003,-0.004,-0.01,-0.123
1701527941.159,19.609,19.609,-19.609,-0.0018000000000000002,0.0037,-0.0206,-0.01,-0.01,-0.11800000000000001
1701527941.199,19.609,19.609,-19.609,0.0001,0.0015,0.0425,-0.007,0.007,-0.127
1701527941.239,19.609,19.609,-19.609,0.0009000000000000001,0.0014,0.0007,-0.018000000000000002,-0.009000000000000001,-0.113
1701527941.279,19.609,19.609,-19.609,-0.0009000000000000001,0.0015,0.0001,-0.012,-0.011,-0.116
1701527941.319,19.609,19.609,-19.609,0.0013000000000000002,0.003,0.0059,-0.016,-0.021,-0.10200000000000001
1701527941.359,19.609,19.609,-19.609,0.0008,0.001,-0.0017000000000000001,-0.013000000000000001,-0.013000000000000001,-0.091
1701527941.399,19.609,19.609,-19.609,-0.0001,0.0009000000000000001,0.0054,-0.012,-0.017,-0.098
1701527941.439,19.609,19.609,-19.609,0.00030000000000000003,0.0014,0.0012000000000000001,-0.012,0.006,-0.09
1701527941.479,19.609,19.609,-19.609,0.0004,0.0022,-0.0009000000000000001,-0.008,-0.022,-0.079
1701527941.519,19.609,19.609,-19.609,-0.0008,0.0032,0.0046,-0.001,-0.004,-0.08
1701527941.559,19.609,19.609,-19.609,0.0011,0.0019,-0.0007,-0.01,0.007,-0.077
1701527941.599,19.609,19.609,-19.609,0.0,0.0036000000000000003,0.022600000000000002,-0.005,-0.007,-0.083
1701527941.639,19.609,19.609,-19.609,-0.0024000000000000002,0.0017000000000000001,0.0023,-0.007,-0.016,-0.09
1701527941.679,19.609,19.609,-19.609,-0.0012000000000000001,0.0014,-0.0047,-0.008,-0.022,-0.092
1701527941.719,19.609,19.609,-19.609,-0.0017000000000000001,0.0015,0.0079,-0.015,-0.006,-0.10400000000000001
1701527941.759,19.609,19.609,-19.609,-0.0021000000000000003,0.001,0.0083,-0.013000000000000001,-0.063,-0.112
1701527941.799,19.609,19.609,-19.609,0.0017000000000000001,0.0015,-0.0015,-0.003,-0.074,-0.115
1701527941.839,19.609,19.609,-19.609,0.0001,0.0036000000000000003,0.0022,-0.008,-0.059000000000000004,-0.112
1701527941.879,19.609,19.609,-19.609,0.0001,0.0018000000000000002,-0.009000000000000001,-0.026000000000000002,-0.043000000000000003,-0.11800000000000001
1701527941.919,19.609,19.609,-19.609,0.003,0.00030000000000000003,0.027700000000000002,-0.026000000000000002,-0.047,-0.122
1701527941.959,19.609,19.609,-19.609,-0.0009000000000000001,0.0004,-0.0109,-0.029,-0.013000000000000001,-0.114
1701527941.999,19.609,19.609,-19.609,0.0012000000000000001,0.0001,0.0172,-0.021,-0.024,-0.115
1701527942.039,19.609,19.609,-19.609,-0.0005,0.0031000000000000003,-0.0017000000000000001,-0.012,-0.027,-0.112
1701527942.079,19.609,19.609,-19.609,-0.0009000000000000001,0.0039000000000000003,-0.023200000000000002,-0.005,-0.035,-0.112
1701527942.119,19.609,19.609,-19.609,0.0009000000000000001,0.0021000000000000003,0.0344,-0.003,-0.035,-0.11900000000000001
1701527942.159,19.609,19.609,-19.609,0.002,0.002,0.0038,0.006,-0.04,-0.117
1701527942.199,19.609,19.609,-19.609,0.0012000000000000001,0.0016,0.0,0.015,-0.048,-0.109
1701527942.2389998,19.609,19.609,-19.609,0.0018000000000000002,0.0012000000000000001,0.0057,0.02,-0.045,-0.107
1701527942.279,19.609,19.609,-19.609,-0.0011,-0.00030000000000000003,0.005,0.023,-0.047,-0.111
1701527942.319,19.609,19.609,-19.609,-0.0015,0.0018000000000000002,0.009600000000000001,0.018000000000000002,-0.039,-0.11
1701527942.359,19.609,19.609,-19.609,0.0021000000000000003,0.004200000000000001,-0.0026000000000000003,0.022,-0.028,-0.11
1701527942.399,19.609,19.609,-19.609,0.0022,-0.001,0.003,0.018000000000000002,-0.018000000000000002,-0.113
1701527942.439,19.609,19.609,-19.609,-0.0018000000000000002,0.0036000000000000003,0.0,0.01,-0.021,-0.105
1701527942.4789999,19.609,19.609,-19.609,-0.0009000000000000001,0.0029000000000000002,-0.0009000000000000001,0.005,-0.024,-0.10300000000000001
1701527942.519,19.609,19.609,-19.609,-0.0028,0.0027,0.017,0.005,-0.035,-0.109
1701527942.559,19.609,19.609,-19.609,0.0024000000000000002,0.0012000000000000001,0.008400000000000001,-0.005,-0.047,-0.10400000000000001
1701527942.599,19.609,19.609,-19.609,0.0009000000000000001,0.0022,-0.0126,0.005,-0.062,-0.099
1701527942.639,19.609,19.609,-19.609,0.0,-0.00030000000000000003,0.005,-0.007,-0.039,-0.097
1701527942.679,19.609,19.609,-19.609,0.0019,0.0021000000000000003,0.0152,-0.018000000000000002,-0.023,-0.10300000000000001
1701527942.7189999,19.609,19.609,-19.609,0.004,0.0055000000000000005,-0.0012000000000000001,-0.029,-0.021,-0.1
1701527942.759,19.609,19.609,-19.609,-0.0014,0.0026000000000000003,0.0051,-0.031,-0.009000000000000001,-0.08600000000000001
1701527942.799,19.609,19.609,-19.609,-0.0012000000000000001,0.003,0.0023,-0.035,0.003,-0.08700000000000001
1701527942.839,19.609,19.609,-19.609,-0.0008,0.004,0.0031000000000000003,-0.022,0.004,-0.093
1701527942.879,19.609,19.609,-19.609,0.0002,0.0012000000000000001,-0.0015,-0.019,-0.009000000000000001,-0.09
1701527942.919,19.609,19.609,-19.609,-0.001,0.0049,0.0053,-0.016,-0.01,-0.101
1701527942.9589999,19.609,19.609,-19.609,0.0002,0.001,0.0098,-0.003,-0.025,-0.108
1701527942.999,19.609,19.609,-19.609,0.0027,0.0018000000000000002,0.005,-0.006,-0.032,-0.10200000000000001
1701527943.039,19.609,19.609,-19.609,0.0015,0.0006000000000000001,-0.0002,0.001,-0.041,-0.112
1701527943.079,19.609,19.609,-19.609,-0.0014,0.0013000000000000002,0.0009000000000000001,0.003,-0.037,-0.115
1701527943.119,19.609,19.609,-19.609,0.0014,0.0021000000000000003,0.0078000000000000005,-0.006,-0.034,-0.108
1701527943.159,19.609,19.609,-19.609,0.0008,0.0027,-0.0006000000000000001,-0.001,-0.035,-0.107
1701527943.199,19.609,19.609,-19.609,0.0013000000000000002,0.0023,0.0,-0.008,-0.032,-0.105
1701527943.239,19.609,19.609,-19.609,-0.0013000000000000002,0.0011,0.0032,-0.011,-0.038,-0.10200000000000001
1701527943.279,19.609,19.609,-19.609,0.0007,0.0026000000000000003,-0.005,-0.01,-0.047,-0.098
1701527943.319,19.609,19.609,-19.609,0.00030000000000000003,0.0026000000000000003,0.022000000000000002,0.009000000000000001,-0.045,-0.097
1701527943.359,19.609,19.609,-19.609,0.0013000000000000002,0.0022,-0.0005,-0.011,-0.037,-0.10400000000000001
1701527943.399,19.609,19.609,-19.609,0.0012000000000000001,0.0012000000000000001,0.0017000000000000001,0.004,-0.049,-0.098
1701527943.439,19.609,19.609,-19.609,0.0011,0.0051,-0.0029000000000000002,0.005,-0.052000000000000005,-0.088
1701527943.479,19.609,19.609,-19.609,0.0012000000000000001,0.001,0.01,-0.003,-0.035,-0.099
1701527943.519,19.609,19.609,-19.609,-0.0009000000000000001,0.0051,-0.0059,-0.003,-0.031,-0.112
1701527943.559,19.609,19.609,-19.609,0.0,0.0007,0.0291,-0.007,-0.029,-0.101
1701527943.599,19.609,19.609,-19.609,0.0017000000000000001,0.0018000000000000002,-0.0031000000000000003,0.042,-0.026000000000000002,-0.107
1701527943.639,19.609,19.609,-19.609,-0.0036000000000000003,0.0025,0.0048000000000000004,-0.011,-0.029,-0.11
1701527943.679,19.609,19.609,-19.609,0.0017000000000000001,0.0,0.0046,-0.007,-0.044,-0.10400000000000001
1701527943.719,19.609,19.609,-19.609,0.0006000000000000001,0.0011,0.0013000000000000002,-0.012,-0.03,-0.10400000000000001
1701527943.759,19.609,19.609,-19.609,-0.001,0.0007,-0.0037,-0.017,-0.044,-0.10300000000000001
1701527943.799,19.609,19.609,-19.609,0.0017000000000000001,0.0045000000000000005,0.0244,-0.017,-0.041,-0.105
1701527943.839,19.609,19.609,-19.609,0.0006000000000000001,0.0022,-0.009300000000000001,-0.017,-0.041,-0.105
1701527943.879,19.609,19.609,-19.609,0.0015,0.001,-0.0006000000000000001,-0.016,-0.037,-0.107
1701527943.919,19.609,19.609,-19.609,0.0037,0.0,-0.0261,-0.016,-0.031,-0.109
1701527943.959,19.609,19.609,-19.609,-0.0005,0.0032,0.0443,-0.01,-0.033,-0.108
1701527943.999,19.609,19.609,-19.609,0.0021000000000000003,0.0044,0.0004,-0.007,-0.035,-0.11
1701527944.039,19.609,19.609,-19.609,-0.0019,0.0001,0.0046,-0.009000000000000001,-0.045,-0.107
1701527944.079,19.609,19.609,-19.609,0.0006000000000000001,0.0013000000000000002,0.005,-0.003,-0.044,-0.10300000000000001
1701527944.119,19.609,19.609,-19.609,0.00030000000000000003,0.0028,-0.008400000000000001,-0.003,-0.04,-0.109
1701527944.159,19.609,19.609,-19.609,0.0014,0.0017000000000000001,0.008400000000000001,0.006,-0.04,-0.107
1701527944.199,19.609,19.609,-19.609,0.0007,0.0021000000000000003,-0.0039000000000000003,0.001,-0.04,-0.115
1701527944.2389998,19.609,19.609,-19.609,-0.0021000000000000003,0.0019,-0.0015,0.016,-0.054,-0.109
1701527944.279,19.609,19.609,-19.609,-0.00030000000000000003,0.0021000000000000003,0.0067,0.001,-0.044,-0.111
1701527944.319,19.609,19.609,-19.609,-0.0007,0.0033,0.0029000000000000002,-0.008,-0.039,-0.117
1701527944.359,19.609,19.609,-19.609,-0.0031000000000000003,0.0011,-0.0067,-0.019,-0.039,-0.108
1701527944.399,19.609,19.609,-19.609,0.0001,0.0023,0.0109,-0.01,-0.039,-0.10300000000000001
1701527944.439,19.609,19.609,-19.609,0.0007,0.0032,0.0006000000000000001,-0.014,-0.036000000000000004,-0.105
1701527944.4789999,19.609,19.609,-19.609,0.0004,0.001,-0.004,-0.013000000000000001,-0.037,-0.105
1701527944.519,19.609,19.609,-19.609,0.0012000000000000001,0.0007,0.0029000000000000002,-0.025,-0.042,-0.1
1701527944.559,19.609,19.609,-19.609,0.0016,0.0015,0.001,-0.016,-0.041,-0.115
1701527944.599,19.609,19.609,-19.609,-0.00030000000000000003,0.0033,-0.0017000000000000001,-0.02,-0.046,-0.114
1701527944.639,19.609,19.609,-19.609,0.0006000000000000001,0.0034000000000000002,0.016,-0.013000000000000001,-0.057,-0.115
1701527944.679,19.609,19.609,-19.609,0.0004,0.0026000000000000003,0.0047,-0.009000000000000001,-0.049,-0.124
1701527944.7189999,19.609,19.609,-19.609,-0.0006000000000000001,0.0009000000000000001,0.0025,-0.012,-0.043000000000000003,-0.12
1701527944.759,19.609,19.609,-19.609,0.0005,0.002,0.0061,-0.008,-0.05,-0.117
1701527944.799,19.609,19.609,-19.609,0.0005,0.0,0.0048000000000000004,-0.007,-0.033,-0.114
1701527944.839,19.609,19.609,-19.609,-0.0017000000000000001,0.0007,0.0082,-0.014,-0.056,-0.116
1701527944.879,19.609,19.609,-19.609,0.0024000000000000002,0.0,0.0081,-0.01,-0.057,-0.11
1701527944.919,19.609,19.609,-19.609,0.0,0.0029000000000000002,0.00030000000000000003,-0.007,-0.054,-0.113
1701527944.9589999,19.609,19.609,-19.609,-0.0006000000000000001,0.0021000000000000003,-0.007500000000000001,-0.01,-0.058,-0.113
1701527944.999,19.609,19.609,-19.609,0.0018000000000000002,-0.0016,0.009000000000000001,-0.017,-0.054,-0.113
1701527945.039,19.609,19.609,-19.609,-0.0007,0.0016,-0.0078000000000000005,0.033,-0.065,-0.107
1701527945.079,19.609,19.609,-19.609,0.0013000000000000002,0.0026000000000000003,0.0151,0.002,-0.051000000000000004,-0.108
1701527945.119,19.609,19.609,-19.609,0.0005,0.0025,0.002,-0.005,-0.037,-0.109
1701527945.159,19.609,19.609,-19.609,-0.0008,0.0005,0.001,-0.005,-0.041,-0.106
1701527945.199,19.609,19.609,-19.609,0.0005,0.0011,0.0058000000000000005,-0.003,-0.036000000000000004,-0.095
1701527945.239,19.609,19.609,-19.609,-0.0001,0.0039000000000000003,-0.0026000000000000003,-0.005,-0.039,-0.095
1701527945.279,19.609,19.609,-19.609,0.0018000000000000002,0.0018000000000000002,0.0109,-0.006,-0.026000000000000002,-0.10300000000000001
1701527945.319,19.609,19.609,-19.609,0.0013000000000000002,0.0025,0.0037,0.003,-0.025,-0.095
1701527945.359,19.609,19.609,-19.609,-0.0004,0.0016,0.0057,-0.015,-0.023,-0.10400000000000001
1701527945.399,19.609,19.609,-19.609,-0.0018000000000000002,0.0012000000000000001,0.0017000000000000001,-0.009000000000000001,-0.03,-0.108
1701527945.439,19.609,19.609,-19.609,-0.0051,0.0039000000000000003,0.0045000000000000005,0.0,-0.037,-0.101
1701527945.479,19.609,19.609,-19.609,0.0014,0.0006000000000000001,-0.002,-0.005,-0.025,-0.111
1701527945.519,19.609,19.609,-19.609,0.0019,0.001,0.0063,-0.001,-0.027,-0.11
1701527945.559,19.609,19.609,-19.609,0.001,0.0046,-0.00030000000000000003,-0.005,-0.028,-0.101
1701527945.599,19.609,19.609,-19.609,-0.0002,0.0036000000000000003,-0.0001,-0.011,-0.023,-0.101
1701527945.639,19.609,19.609,-19.609,-0.0021000000000000003,0.0012000000000000001,0.0041,-0.009000000000000001,-0.027,-0.105
1701527945.679,19.609,19.609,-19.609,0.0012000000000000001,0.002,-0.0014,-0.01,-0.03,-0.105
1701527945.719,19.609,19.609,-19.609,0.0014,0.0021000000000000003,0.0059,-0.006,-0.042,-0.096
1701527945.759,19.609,19.609,-19.609,-0.0006000000000000001,0.0009000000000000001,-0.0057,-0.01,-0.038,-0.1
1701527945.799,19.609,19.609,-19.609,-0.0018000000000000002,0.0009000000000000001,0.027800000000000002,-0.004,-0.039,-0.108
1701527945.839,19.609,19.609,-19.609,0.0007,0.0009000000000000001,-0.0129,0.006,-0.045,-0.111
1701527945.879,19.609,19.609,-19.609,0.0006000000000000001,0.004,0.0021000000000000003,0.01,-0.035,-0.10400000000000001
1701527945.919,19.609,19.609,-19.609,-0.0038,0.0018000000000000002,0.006500000000000001,0.003,-0.026000000000000002,-0.107
1701527945.959,19.609,19.609,-19.609,-0.0009000000000000001,0.004200000000000001,0.0043,-0.002,-0.03,-0.115
1701527945.999,19.609,19.609,-19.609,-0.0002,0.001,0.0049,-0.007,-0.028,-0.095
1701527946.039,19.609,19.609,-19.609,-0.0001,0.0009000000000000001,-0.001,-0.002,-0.014,-0.095
1701527946.079,19.609,19.609,-19.609,0.002,0.0021000000000000003,-0.008,-0.006,-0.018000000000000002,-0.098
1701527946.119,19.609,19.609,-19.609,0.0026000000000000003,0.004200000000000001,-0.0025,0.004,-0.044,-0.089
1701527946.159,19.609,19.609,-19.609,0.0011,0.0038,0.011600000000000001,0.0,-0.045,-0.095
1701527946.199,19.609,19.609,-19.609,0.0,0.0005,0.004,-0.01,-0.043000000000000003,-0.10300000000000001
1701527946.2389998,19.609,19.609,-19.609,0.0002,0.0019,-0.0247,-0.009000000000000001,-0.048,-0.092
1701527946.279,19.609,19.609,-19.609,-0.0004,0.0014,0.0173,0.0,-0.043000000000000003,-0.096
1701527946.319,19.609,19.609,-19.609,0.0012000000000000001,0.0015,0.0057,0.001,-0.043000000000000003,-0.101
1701527946.359,19.609,19.609,-19.609,-0.00030000000000000003,0.0056,0.006200000000000001,0.002,-0.044,-0.105
1701527946.399,19.609,19.609,-19.609,0.0014,0.0029000000000000002,0.0011,0.0,-0.042,-0.101
1701527946.439,19.609,19.609,-19.609,-0.0004,0.001,0.001,0.011,-0.04,-0.11900000000000001
1701527946.4789999,19.609,19.609,-19.609,0.0,0.002,-0.0134,0.004,-0.051000000000000004,-0.114
1701527946.519,19.609,19.609,-19.609,0.0011,-0.0002,0.033,0.002,-0.062,-0.109
1701527946.559,19.609,19.609,-19.609,-0.0012000000000000001,0.0023,-0.013900000000000001,-0.001,-0.064,-0.109
1701527946.599,19.609,19.609,-19.609,-0.0007,0.0041,0.001,-0.006,-0.055,-0.114
1701527946.639,19.609,19.609,-19.609,0.0017000000000000001,0.0026000000000000003,0.02,-0.008,-0.054,-0.113
1701527946.679,19.609,19.609,-19.609,-0.0004,0.0018000000000000002,0.0031000000000000003,0.014,-0.058,-0.10200000000000001
1701527946.7189999,19.609,19.609,-19.609,-0.0018000000000000002,0.0023,0.0014,0.007,-0.049,-0.098
1701527946.759,19.609,19.609,-19.609,-0.0018000000000000002,0.0018000000000000002,0.0048000000000000004,-0.004,-0.022,-0.10400000000000001
1701527946.799,19.609,19.609,-19.609,0.0017000000000000001,0.0026000000000000003,0.0015,-0.011,-0.024,-0.105
1701527946.839,19.609,19.609,-19.609,0.0011,-0.001,0.0051,0.023,-0.022,-0.10200000000000001
1701527946.879,19.609,19.609,-19.609,0.0014,0.0026000000000000003,-0.0015,0.004,-0.014,-0.107
1701527946.919,19.609,19.609,-19.609,0.001,0.0037,0.007500000000000001,0.008,-0.018000000000000002,-0.10200000000000001
1701527946.9589999,19.609,19.609,-19.609,-0.0026000000000000003,0.0016,-0.0078000000000000005,0.004,-0.037,-0.10400000000000001
1701527946.999,19.609,19.609,-19.609,0.0024000000000000002,0.0016,0.015600000000000001,-0.011,-0.04,-0.114
1701527947.039,19.609,19.609,-19.609,0.0005,0.002,0.0022,-0.002,-0.055,-0.111
1701527947.079,19.609,19.609,-19.609,0.0001,0.0033,0.005,0.021,-0.054,-0.109
1701527947.119,19.609,19.609,-19.609,-0.0004,0.0017000000000000001,0.0033,0.009000000000000001,-0.043000000000000003,-0.111
1701527947.159,19.609,19.609,-19.609,-0.00030000000000000003,0.0009000000000000001,0.0095,0.002,-0.035,-0.108
1701527947.199,19.609,19.609,-19.609,0.002,0.0,-0.0008,0.004,-0.032,-0.106
1701527947.239,19.609,19.609,-19.609,-0.0005,0.001,0.0066,0.001,-0.034,-0.11800000000000001
1701527947.279,19.609,19.609,-19.609,0.00030000000000000003,-0.0005,0.0005,0.005,-0.035,-0.116
1701527947.319,19.609,19.609,-19.609,0.0013000000000000002,0.0029000000000000002,0.018600000000000002,0.009000000000000001,-0.055,-0.126
1701527947.359,19.609,19.609,-19.609,0.0016,-0.0004,0.0019,0.011,-0.043000000000000003,-0.125
1701527947.399,19.609,19.609,-19.609,0.00030000000000000003,0.0028,0.005200000000000001,0.009000000000000001,-0.031,-0.129
1701527947.439,19.609,19.609,-19.609,-0.0004,0.0018000000000000002,0.0022,0.005,-0.049,-0.128
1701527947.479,19.609,19.609,-19.609,-0.0024000000000000002,0.0025,-0.0014,0.007,-0.05,-0.129
1701527947.519,19.609,19.609,-19.609,-0.0021000000000000003,0.0009000000000000001,0.0032,0.014,-0.047,-0.12
1701527947.559,19.609,19.609,-19.609,-0.0037,0.0005,0.006200000000000001,0.011,-0.028,-0.123
1701527947.599,19.609,19.609,-19.609,0.0015,0.0029000000000000002,0.0035,-0.004,-0.022,-0.11800000000000001
1701527947.639,19.609,19.609,-19.609,-0.0002,0.0048000000000000004,-0.0025,-0.009000000000000001,-0.03,-0.109
1701527947.679,19.609,19.609,-19.609,-0.0004,0.0,-0.0054,-0.003,-0.008,-0.111
1701527947.719,19.609,19.609,-19.609,0.00030000000000000003,0.0054,0.0182,-0.004,-0.011,-0.11900000000000001
1701527947.759,19.609,19.609,-19.609,0.0012000000000000001,0.001,-0.002,0.001,-0.029,-0.101
1701527947.799,19.609,19.609,-19.609,0.0004,0.0009000000000000001,0.0019,-0.003,-0.03,-0.10400000000000001
1701527947.839,19.609,19.609,-19.609,-0.0001,0.0009000000000000001,0.0053,-0.008,-0.02,-0.10400000000000001
1701527947.879,19.609,19.609,-19.609,0.002,0.0018000000000000002,0.006200000000000001,0.0,-0.029,-0.10200000000000001
1701527947.919,19.609,19.609,-19.609,0.0027,0.0019,0.013000000000000001,-0.004,-0.029,-0.101
1701527947.959,19.609,19.609,-19.609,0.0009000000000000001,0.001,0.0057,-0.003,-0.031,-0.114
1701527947.999,19.609,19.609,-19.609,0.0006000000000000001,0.0028,0.023100000000000002,0.002,-0.034,-0.113
1701527948.039,19.609,19.609,-19.609,0.0016,0.0007,-0.0123,0.002,-0.035,-0.105
1701527948.079,19.609,19.609,-19.609,-0.0006000000000000001,0.0036000000000000003,0.009000000000000001,0.003,-0.042,-0.116
1701527948.119,19.609,19.609,-19.609,0.0027,0.003,0.0057,0.005,-0.049,-0.116
1701527948.159,19.609,19.609,-19.609,0.0028,0.003,-0.0001,-0.001,-0.041,-0.111
1701527948.199,19.609,19.609,-19.609,0.0024000000000000002,0.0014,0.014,0.004,-0.034,-0.109
1701527948.2389998,19.609,19.609,-19.609,0.0001,0.0,0.0125,0.007,-0.034,-0.111
1701527948.279,19.609,19.609,-19.609,-0.0001,0.0006000000000000001,0.0004,0.007,-0.036000000000000004,-0.108
1701527948.319,19.609,19.609,-19.609,0.0021000000000000003,0.0009000000000000001,0.0017000000000000001,0.023,-0.025,-0.1
1701527948.359,19.609,19.609,-19.609,-0.001,0.0018000000000000002,-0.0034000000000000002,0.015,-0.008,-0.107
1701527948.399,19.609,19.609,-19.609,0.00030000000000000003,0.0009000000000000001,0.0001,0.01,-0.013000000000000001,-0.113
1701527948.439,19.609,19.609,-19.609,-0.0001,0.0029000000000000002,-0.0149,0.0,-0.015,-0.097
1701527948.4789999,19.609,19.609,-19.609,-0.0001,0.0021000000000000003,0.0364,0.009000000000000001,-0.014,-0.101
1701527948.519,19.609,19.609,-19.609,-0.0014,0.0017000000000000001,0.0029000000000000002,0.005,-0.008,-0.108
1701527948.559,19.609,19.609,-19.609,-0.0006000000000000001,0.0001,0.0054,0.007,-0.024,-0.097
1701527948.599,19.609,19.609,-19.609,-0.0008,0.0008,0.0083,0.008,-0.035,-0.101
1701527948.639,19.609,19.609,-19.609,-0.0021000000000000003,0.004,0.0059,-0.004,-0.039,-0.108
1701527948.679,19.609,19.609,-19.609,0.0018000000000000002,0.0,0.0032,0.004,-0.051000000000000004,-0.101
1701527948.7189999,19.609,19.609,-19.609,-0.0006000000000000001,0.0032,0.0008,0.002,-0.045,-0.095
1701527948.759,19.609,19.609,-19.609,0.0012000000000000001,0.0032,0.0053,-0.001,-0.029,-0.099
1701527948.799,19.609,19.609,-19.609,-0.0009000000000000001,0.0056,0.0037,0.027,-0.026000000000000002,-0.10200000000000001
1701527948.839,19.609,19.609,-19.609,-0.0001,0.0028,-0.0014,-0.003,-0.023,-0.101
1701527948.879,19.609,19.609,-19.609,0.0,0.0026000000000000003,-0.0017000000000000001,-0.003,-0.014,-0.10300000000000001
1701527948.919,19.609,19.609,-19.609,0.0001,0.001,0.0099,-0.004,-0.015,-0.10300000000000001
1701527948.9589999,19.609,19.609,-19.609,0.0021000000000000003,0.0024000000000000002,0.0023,0.012,-0.021,-0.10400000000000001
1701527948.999,19.609,19.609,-19.609,-0.0008,-0.0002,0.0135,0.0,-0.02,-0.1
1701527949.039,19.609,19.609,-19.609,0.0009000000000000001,0.0032,0.00030000000000000003,0.019,-0.028,-0.111
1701527949.079,19.609,19.609,-19.609,-0.0006000000000000001,0.0007,-0.0001,-0.001,-0.03,-0.108
1701527949.119,19.609,19.609,-19.609,-0.0027,0.0022,0.0061,0.005,-0.033,-0.107
1701527949.159,19.609,19.609,-19.609,-0.0004,0.0032,-0.008700000000000001,0.0,-0.012,-0.107
1701527949.199,19.609,19.609,-19.609,-0.0053,0.0057,0.033,-0.009000000000000001,-0.003,-0.108
1701527949.239,19.609,19.609,-19.609,0.0012000000000000001,0.0019,0.0,-0.005,-0.011,-0.10200000000000001
1701527949.279,19.609,19.609,-19.609,0.0,0.0015,0.009000000000000001,-0.001,-0.006,-0.094
1701527949.319,19.609,19.609,-19.609,0.0023,0.0009000000000000001,0.0023,-0.006,-0.003,-0.10200000000000001
1701527949.359,19.609,19.609,-19.609,-0.0006000000000000001,0.0024000000000000002,0.0007,-0.002,-0.021,-0.096
1701527949.399,19.609,19.609,-19.609,0.002,0.0006000000000000001,0.0019,-0.021,-0.024,-0.095
1701527949.439,19.609,19.609,-19.609,-0.0001,0.0,0.0028,-0.015,-0.023,-0.096
1701527949.479,19.609,19.609,-19.609,0.0002,0.0011,0.0053,-0.008,-0.033,-0.1
1701527949.519,19.609,19.609,-19.609,-0.0025,-0.0006000000000000001,0.015000000000000001,-0.011,-0.031,-0.099
1701527949.559,19.609,19.609,-19.609,-0.0001,0.0017000000000000001,0.0033,-0.005,-0.033,-0.108
1701527949.599,19.609,19.609,-19.609,0.0012000000000000001,0.0014,0.002,-0.009000000000000001,-0.027,-0.106
1701527949.639,19.609,19.609,-19.609,-0.00030000000000000003,-0.0001,0.0007,-0.01,-0.029,-0.109
1701527949.679,19.609,19.609,-19.609,0.0024000000000000002,0.0004,0.0097,-0.014,-0.032,-0.106
1701527949.719,19.609,19.609,-19.609,0.0002,0.0028,0.0026000000000000003,-0.006,-0.032,-0.111
1701527949.759,19.609,19.609,-19.609,0.0001,0.0026000000000000003,-0.024800000000000003,-0.007,-0.036000000000000004,-0.105
1701527949.799,19.609,19.609,-19.609,-0.0008,0.0011,-0.0063,-0.001,-0.029,-0.10300000000000001
1701527949.839,19.609,19.609,-19.609,0.0002,0.0028,0.009600000000000001,0.005,-0.038,-0.106
1701527949.879,19.609,19.609,-19.609,0.0024000000000000002,0.002,0.045000000000000005,-0.006,-0.034,-0.107
1701527949.919,19.609,19.609,-19.609,0.0001,0.0008,-0.0063,0.008,-0.037,-0.105
1701527949.959,19.609,19.609,-19.609,-0.0004,0.0012000000000000001,0.008,0.004,-0.03,-0.098
1701527949.999,19.609,19.609,-19.609,0.001,0.002,0.0046,-0.006,-0.016,-0.10400000000000001
1701527950.039,19.609,19.609,-19.609,-0.001,0.001,-0.0161,-0.013000000000000001,-0.014,-0.101
1701527950.079,19.609,19.609,-19.609,0.0009000000000000001,0.0046,0.0088,-0.008,-0.018000000000000002,-0.095
1701527950.119,19.609,19.609,-19.609,0.00030000000000000003,0.0029000000000000002,0.0045000000000000005,-0.021,0.01,-0.094
1701527950.159,19.609,19.609,-19.609,-0.0008,0.0025,-0.009000000000000001,-0.001,-0.001,-0.099
1701527950.199,19.609,19.609,-19.609,0.0011,0.00030000000000000003,0.0162,-0.005,-0.011,-0.09
1701527950.2389998,19.609,19.609,-19.609,-0.00030000000000000003,0.001,0.0001,-0.007,-0.004,-0.094
1701527950.279,19.609,19.609,-19.609,-0.00030000000000000003,-0.0004,0.0,-0.014,-0.007,-0.1
1701527950.319,19.609,19.609,-19.609,-0.0015,0.0009000000000000001,0.0012000000000000001,-0.01,-0.018000000000000002,-0.092
1701527950.359,19.609,19.609,-19.609,0.0017000000000000001,0.002,0.008400000000000001,-0.004,-0.002,-0.101
1701527950.399,19.609,19.609,-19.609,0.003,0.0028,-0.0014,-0.053,-0.009000000000000001,-0.108
1701527950.439,19.609,19.609,-19.609,0.0021000000000000003,0.0031000000000000003,0.0043,-0.003,-0.005,-0.1
1701527950.4789999,19.609,19.609,-19.609,0.0001,0.0035,0.0028,-0.016,0.014,-0.105
1701527950.519,19.609,19.609,-19.609,-0.002,0.0012000000000000001,0.023,-0.023,0.028,-0.094
1701527950.559,19.609,19.609,-19.609,0.001,0.0032,0.0061,-0.032,0.025,-0.098
1701527950.599,19.609,19.609,-19.609,0.0018000000000000002,0.0018000000000000002,-0.007200000000000001,-0.017,-0.007,-0.094
1701527950.639,19.609,19.609,-19.609,0.001,0.0015,0.021500000000000002,-0.016,-0.028,-0.106
1701527950.679,19.609,19.609,-19.609,-0.00030000000000000003,0.0004,-0.0033,-0.012,-0.036000000000000004,-0.115
1701527950.7189999,19.609,19.609,-19.609,0.00030000000000000003,0.0015,-0.0059,-0.001,-0.044,-0.111
1701527950.759,19.609,19.609,-19.609,0.00030000000000000003,0.0027,0.006200000000000001,-0.012,-0.052000000000000005,-0.114
1701527950.799,19.609,19.609,-19.609,-0.0023,0.0023,-0.0296,-0.013000000000000001,-0.043000000000000003,-0.11900000000000001
1701527950.839,19.609,19.609,-19.609,-0.0004,0.0017000000000000001,0.0402,-0.014,-0.038,-0.114
1701527950.879,19.609,19.609,-19.609,-0.0033,0.0023,-0.0071,-0.017,-0.033,-0.113
1701527950.919,19.609,19.609,-19.609,-0.0008,0.0021000000000000003,0.0051,-0.014,-0.019,-0.107
1701527950.9589999,19.609,19.609,-19.609,0.0029000000000000002,0.0009000000000000001,0.002,-0.005,-0.014,-0.108
1701527950.999,19.609,19.609,-19.609,0.0018000000000000002,0.0047,0.0059,-0.008,-0.025,-0.101
1701527951.039,19.609,19.609,-19.609,0.0002,0.0024000000000000002,0.0018000000000000002,-0.007,-0.018000000000000002,-0.105
1701527951.079,19.609,19.609,-19.609,0.0002,0.0021000000000000003,0.005,-0.01,-0.019,-0.108
1701527951.119,19.609,19.609,-19.609,-0.001,0.0035,-0.0029000000000000002,-0.009000000000000001,-0.031,-0.099
1701527951.159,19.609,19.609,-19.609,0.0021000000000000003,-0.0007,0.010400000000000001,-0.001,-0.026000000000000002,-0.107
1701527951.199,19.609,19.609,-19.609,-0.0018000000000000002,0.0034000000000000002,0.002,-0.001,-0.013000000000000001,-0.105
1701527951.239,19.609,19.609,-19.609,-0.0004,0.002,0.0028,-0.014,0.003,-0.114
1701527951.279,19.609,19.609,-19.609,0.0004,0.0043,0.0046,-0.028,0.01,-0.093
1701527951.319,19.609,19.609,-19.609,0.0018000000000000002,0.002,-0.013000000000000001,-0.034,0.009000000000000001,-0.093
1701527951.359,19.609,19.609,-19.609,-0.0004,0.001,0.0086,-0.025,0.01,-0.096
1701527951.399,19.609,19.609,-19.609,-0.0004,0.002,0.002,-0.028,0.01,-0.098
1701527951.439,19.609,19.609,-19.609,0.0011,0.0022,0.0029000000000000002,-0.027,0.004,-0.095
1701527951.479,19.609,19.609,-19.609,-0.001,0.002,0.006200000000000001,-0.042,0.002,-0.096
1701527951.519,19.609,19.609,-19.609,0.00030000000000000003,0.0013000000000000002,-0.0064,-0.045,-0.023,-0.096
1701527951.559,19.609,19.609,-19.609,-0.0017000000000000001,0.0,0.0035,-0.055,-0.018000000000000002,-0.077
1701527951.599,19.609,19.609,-19.609,0.0024000000000000002,0.0038,0.022000000000000002,-0.064,-0.002,-0.066
1701527951.639,19.609,19.609,-19.609,-0.0013000000000000002,0.0005,0.030000000000000002,-0.056,0.0,-0.084
1701527951.679,19.609,19.609,-19.609,0.0,-0.0018000000000000002,0.001,-0.049,0.002,-0.08700000000000001
1701527951.719,19.609,19.609,-19.609,-0.0006000000000000001,0.001,-0.006500000000000001,-0.08600000000000001,0.017,-0.063
1701527951.759,19.609,19.609,-19.609,-0.0009000000000000001,0.0,0.010400000000000001,-0.081,0.001,-0.07
1701527951.799,19.609,19.609,-19.609,0.003,-0.0005,0.0,-0.08,0.006,-0.063
1701527951.839,19.609,19.609,-19.609,0.0024000000000000002,0.0007,0.0078000000000000005,-0.091,-0.014,-0.065
1701527951.879,19.609,19.609,-19.609,-0.00030000000000000003,0.0006000000000000001,0.0073,-0.079,0.002,-0.07100000000000001
1701527951.919,19.609,19.609,-19.609,-0.0015,0.0024000000000000002,-0.012400000000000001,-0.078,0.017,-0.069
1701527951.959,19.609,19.609,-19.609,-0.0009000000000000001,0.0033,0.0108,-0.19,0.025,-0.023
1701527951.999,19.609,19.609,-19.609,-0.0008,0.004,0.0045000000000000005,-0.099,0.02,-0.07100000000000001
1701527952.039,19.609,19.609,-19.609,0.0,0.0036000000000000003,0.005,0.0,0.06,-0.126
1701527952.079,19.609,19.609,-19.609,0.0009000000000000001,0.0031000000000000003,0.0014,0.019,0.054,-0.202
1701527952.119,19.609,19.609,-19.609,0.0004,0.0024000000000000002,0.0098,0.094,0.041,-0.386
1701527952.159,19.609,19.609,-19.609,-0.0012000000000000001,0.0005,-0.0017000000000000001,0.133,0.028,-0.49
1701527952.199,19.609,19.609,-19.609,0.0006000000000000001,0.0006000000000000001,-0.0284,0.294,0.162,-0.554
1701527952.2389998,19.609,19.609,-19.609,0.0,0.0051,0.0584,0.519,0.317,-0.658
1701527952.279,19.609,19.609,-19.609,0.0015,0.0017000000000000001,-0.0029000000000000002,0.529,0.29,-0.535
1701527952.319,19.609,19.609,-19.609,-0.001,0.0001,0.0061,0.483,0.336,-0.47400000000000003
1701527952.359,19.609,19.609,-19.609,0.0,0.0014,0.007200000000000001,0.489,0.315,-0.486
1701527952.399,19.609,19.609,-19.609,-0.0004,0.0014,-0.0051,0.428,0.278,-0.447
1701527952.439,19.609,19.609,-19.609,0.0009000000000000001,0.0006000000000000001,0.0059,0.446,0.272,-0.43
1701527952.4789999,19.609,19.609,-19.609,-0.0015,0.0014,0.0041,0.453,0.219,-0.45
1701527952.519,19.609,19.609,-19.609,-0.0012000000000000001,0.0029000000000000002,-0.0007,0.299,0.254,-0.276
1701527952.559,19.609,19.609,-19.609,0.0015,0.0029000000000000002,-0.007500000000000001,0.309,0.222,-0.326
1701527952.599,19.609,19.609,-19.609,0.001,-0.0001,0.0115,0.277,0.132,-0.332
1701527952.639,19.609,19.609,-19.609,0.00030000000000000003,0.0029000000000000002,0.0026000000000000003,0.269,0.14300000000000002,-0.272
1701527952.679,19.609,19.609,-19.609,0.0006000000000000001,0.0029000000000000002,0.0079,0.28400000000000003,0.115,-0.296
1701527952.7189999,19.609,19.609,-19.609,0.00030000000000000003,0.0025,0.00030000000000000003,0.296,0.117,-0.272
1701527952.759,19.609,19.609,-19.609,0.0023,0.0046,0.015600000000000001,0.273,0.089,-0.257
1701527952.799,19.609,19.609,-19.609,0.0018000000000000002,0.0007,-0.0114,0.254,0.091,-0.23
1701527952.839,19.609,19.609,-19.609,-0.0018000000000000002,0.0032,0.011600000000000001,0.328,0.101,-0.273
1701527952.879,19.609,19.609,-19.609,0.0012000000000000001,0.0026000000000000003,-0.0167,0.316,0.13,-0.258
1701527952.919,19.609,19.609,-19.609,-0.0018000000000000002,0.0019,0.017,0.28800000000000003,0.131,-0.226
1701527952.9589999,19.609,19.609,-19.609,-0.0002,0.0021000000000000003,-0.0013000000000000002,0.305,0.091,-0.23700000000000002
1701527952.999,19.609,19.609,-19.609,0.0004,0.0036000000000000003,0.0166,0.315,0.029,-0.244
1701527953.039,19.609,19.609,-19.609,0.0001,0.0008,-0.009300000000000001,0.317,0.043000000000000003,-0.275
1701527953.079,19.609,19.609,-19.609,-0.0008,0.0007,0.0161,0.261,0.07200000000000001,-0.229
1701527953.119,19.609,19.609,-19.609,-0.0031000000000000003,-0.0005,-0.0051,0.244,0.029,-0.211
1701527953.159,19.609,19.609,-19.609,-0.0007,0.0039000000000000003,-0.0013000000000000002,0.215,0.008,-0.169
1701527953.199,19.609,19.609,-19.609,-0.0014,0.0002,-0.006500000000000001,0.187,0.032,-0.147
1701527953.239,19.609,19.609,-19.609,-0.0002,0.0021000000000000003,0.019100000000000002,0.212,-0.015,-0.168
1701527953.279,19.609,19.609,-19.609,-0.0001,-0.001,-0.0142,0.20600000000000002,0.004,-0.18
1701527953.319,19.609,19.609,-19.609,0.0021000000000000003,0.0018000000000000002,0.0046,0.162,-0.005,-0.17500000000000002
1701527953.359,19.609,19.609,-19.609,-0.0017000000000000001,0.0018000000000000002,-0.0262,0.136,-0.018000000000000002,-0.14
1701527953.399,19.609,19.609,-19.609,-0.0002,0.002,-0.0142,0.121,-0.033,-0.15
1701527953.439,19.609,19.609,-19.609,-0.0023,0.0007,0.0018000000000000002,0.093,-0.029,-0.129
1701527953.479,19.609,19.609,-19.609,-0.0033,0.00030000000000000003,0.0119,0.067,-0.044,-0.127
1701527953.519,19.609,19.609,-19.609,-0.0008,0.0026000000000000003,0.006200000000000001,0.04,-0.053,-0.123
1701527953.559,19.609,19.609,-19.609,0.0006000000000000001,0.004,-0.0132,0.028,-0.039,-0.12
1701527953.599,19.609,19.609,-19.609,0.001,0.00030000000000000003,0.0011,0.034,-0.042,-0.122
1701527953.639,19.609,19.609,-19.609,-0.0006000000000000001,0.0025,0.0045000000000000005,0.043000000000000003,-0.044,-0.133
1701527953.679,19.609,19.609,-19.609,-0.0012000000000000001,0.0,-0.0213,0.057,-0.028,-0.128
1701527953.719,19.609,19.609,-19.609,0.0009000000000000001,0.0031000000000000003,0.0354,0.043000000000000003,-0.029,-0.127
1701527953.759,19.609,19.609,-19.609,-0.0005,0.0018000000000000002,-0.0251,0.05,-0.028,-0.137
1701527953.799,19.609,19.609,-19.609,-0.0014,0.003,0.029500000000000002,0.065,0.0,-0.14300000000000002
1701527953.839,19.609,19.609,-19.609,-0.0011,0.0018000000000000002,-0.015700000000000002,0.079,-0.007,-0.152
1701527953.879,19.609,19.609,-19.609,-0.0022,0.0,0.0204,0.093,0.003,-0.156
1701527953.919,19.609,19.609,-19.609,-0.0002,0.0004,-0.0066,0.098,-0.056,-0.152
1701527953.959,19.609,19.609,-19.609,-0.0001,0.0014,-0.020800000000000003,0.11800000000000001,0.014,-0.156
1701527953.999,19.609,19.609,-19.609,0.0018000000000000002,0.0009000000000000001,0.0371,0.108,0.009000000000000001,-0.15
1701527954.039,19.609,19.609,-19.609,0.0015,0.001,-0.0118,0.171,0.008,-0.164
1701527954.079,19.609,19.609,-19.609,-0.0009000000000000001,0.0023,0.0158,0.195,0.043000000000000003,-0.20800000000000002
1701527954.119,19.609,19.609,-19.609,0.0021000000000000003,0.0016,-0.0212,0.215,0.069,-0.22
1701527954.159,19.609,19.609,-19.609,0.002,0.001,0.0189,0.271,0.098,-0.251
1701527954.199,19.609,19.609,-19.609,0.0,0.0012000000000000001,-0.0335,0.306,0.113,-0.263
1701527954.2389998,19.609,19.609,-19.609,0.0009000000000000001,0.0038,0.033600000000000005,0.359,0.11900000000000001,-0.28500000000000003
1701527954.279,19.609,19.609,-19.609,0.001,0.001,-0.0086,0.328,0.099,-0.222
1701527954.319,19.609,19.609,-19.609,0.0004,0.0006000000000000001,0.0172,0.35000000000000003,0.083,-0.258
1701527954.359,19.609,19.609,-19.609,0.0007,0.0028,-0.017,0.341,0.068,-0.245
1701527954.399,19.609,19.609,-19.609,-0.0011,0.0028,0.009300000000000001,0.316,0.1,-0.231
1701527954.439,19.609,19.609,-19.609,0.0009000000000000001,0.0008,-0.0061,0.358,0.081,-0.248
1701527954.4789999,19.609,19.609,-19.609,-0.0002,0.0007,0.0234,0.353,0.043000000000000003,-0.224
1701527954.519,19.609,19.609,-19.609,0.0023,0.0014,-0.0053,0.376,0.04,-0.217
1701527954.559,19.609,19.609,-19.609,-0.0009000000000000001,0.0029000000000000002,-0.0057,0.388,-0.106,-0.188
1701527954.599,19.609,19.609,-19.609,-0.0005,0.001,-0.0085,0.373,-0.033,-0.199
1701527954.639,19.609,19.609,-19.609,-0.00030000000000000003,0.0018000000000000002,0.0369,0.322,-0.043000000000000003,-0.191
1701527954.679,19.609,19.609,-19.609,-0.0014,0.0022,-0.0154,0.28,-0.043000000000000003,-0.181
1701527954.7189999,19.609,19.609,-19.609,-0.0018000000000000002,-0.00030000000000000003,0.0167,0.231,-0.035,-0.16
1701527954.759,19.609,19.609,-19.609,-0.0004,0.0009000000000000001,-0.0327,0.196,-0.025,-0.151
1701527954.799,19.609,19.609,-19.609,-0.0013000000000000002,0.0015,0.0391,0.187,-0.019,-0.122
1701527954.839,19.609,19.609,-19.609,-0.00030000000000000003,0.0027,-0.0455,0.17500000000000002,-0.029,-0.126
1701527954.879,19.609,19.609,-19.609,-0.0018000000000000002,-0.0009000000000000001,0.050100000000000006,0.158,-0.046,-0.134
1701527954.919,19.609,19.609,-19.609,0.0,-0.0001,-0.0081,0.14200000000000002,-0.035,-0.137
1701527954.9589999,19.609,19.609,-19.609,0.00030000000000000003,0.0028,-0.007,0.117,-0.034,-0.135
1701527954.999,19.609,19.609,-19.609,0.0001,0.003,0.022500000000000003,0.083,-0.043000000000000003,-0.11900000000000001
1701527955.039,19.609,19.609,-19.609,0.0006000000000000001,0.0026000000000000003,-0.0066,0.054,-0.05,-0.099
1701527955.079,19.609,19.609,-19.609,-0.0012000000000000001,0.0041,-0.0219,0.042,-0.073,-0.099
1701527955.119,19.609,19.609,-19.609,-0.0002,0.003,0.038900000000000004,0.032,-0.078,-0.115
1701527955.159,19.609,19.609,-19.609,-0.0001,0.0009000000000000001,0.0023,0.001,-0.07,-0.10300000000000001
1701527955.199,19.609,19.609,-19.609,0.0007,0.0028,0.0408,-0.005,-0.083,-0.089
1701527955.239,19.609,19.609,-19.609,-0.00030000000000000003,0.0029000000000000002,-0.019700000000000002,-0.004,-0.065,-0.10200000000000001
1701527955.279,19.609,19.609,-19.609,-0.0021000000000000003,0.0015,-0.0049,-0.003,-0.068,-0.109
1701527955.319,19.609,19.609,-19.609,0.001,0.0,0.0002,-0.007,-0.062,-0.099
1701527955.359,19.609,19.609,-19.609,-0.003,-0.0012000000000000001,0.030600000000000002,-0.011,-0.06,-0.095
1701527955.399,19.609,19.609,-19.609,-0.0012000000000000001,0.0021000000000000003,-0.031400000000000004,-0.016,-0.056,-0.099
1701527955.439,19.609,19.609,-19.609,0.0007,0.0007,0.037700000000000004,-0.013000000000000001,-0.045,-0.107
1701527955.479,19.609,19.609,-19.609,0.0007,0.0019,-0.0205,-0.017,-0.054,-0.112
1701527955.519,19.609,19.609,-19.609,0.0018000000000000002,0.002,0.0212,-0.008,-0.046,-0.113
1701527955.559,19.609,19.609,-19.609,0.0,0.0018000000000000002,-0.01,0.004,-0.04,-0.11
1701527955.599,19.609,19.609,-19.609,-0.00030000000000000003,0.0019,-0.0076,-0.013000000000000001,-0.039,-0.088
1701527955.639,19.609,19.609,-19.609,-0.0004,0.0005,-0.0117,0.0,-0.045,-0.101
1701527955.679,19.609,19.609,-19.609,-0.0019,-0.00030000000000000003,0.0354,0.008,-0.035,-0.126
1701527955.719,19.609,19.609,-19.609,0.0012000000000000001,0.0006000000000000001,-0.0004,-0.013000000000000001,-0.009000000000000001,-0.108
1701527955.759,19.609,19.609,-19.609,0.0024000000000000002,0.0013000000000000002,-0.024,-0.017,-0.03,-0.108
1701527955.799,19.609,19.609,-19.609,0.0011,0.0025,0.0,0.006,-0.038,-0.11
1701527955.839,19.609,19.609,-19.609,-0.0001,0.0011,0.047400000000000005,-0.008,-0.045,-0.108
1701527955.879,19.609,19.609,-19.609,0.0,0.0031000000000000003,-0.0333,-0.016,-0.046,-0.107
1701527955.919,19.609,19.609,-19.609,0.0009000000000000001,-0.0012000000000000001,0.0327,-0.025,-0.041,-0.113
1701527955.959,19.609,19.609,-19.609,-0.0004,0.0007,0.002,-0.027,-0.047,-0.113
1701527955.999,19.609,19.609,-19.609,-0.0007,0.0015,-0.004200000000000001,0.0,-0.056,-0.1
1701527956.039,19.609,19.609,-19.609,-0.0001,0.0016,0.0094,-0.03,-0.042,-0.111
1701527956.079,19.609,19.609,-19.609,0.0004,0.0024000000000000002,0.0058000000000000005,-0.033,-0.047,-0.109
1701527956.119,19.609,19.609,-19.609,0.0004,-0.00030000000000000003,-0.031400000000000004,-0.023,-0.045,-0.11900000000000001
1701527956.159,19.609,19.609,-19.609,0.0001,-0.00030000000000000003,0.024200000000000003,-0.029,-0.038,-0.13
1701527956.199,19.609,19.609,-19.609,0.0001,0.0014,0.0009000000000000001,-0.018000000000000002,-0.044,-0.131
1701527956.2389998,19.609,19.609,-19.609,0.0007,0.0013000000000000002,-0.0009000000000000001,-0.017,-0.039,-0.126
1701527956.279,19.609,19.609,-19.609,0.0007,0.0002,0.0146,0.004,-0.049,-0.132
1701527956.319,19.609,19.609,-19.609,-0.0018000000000000002,0.0012000000000000001,-0.0246,-0.003,-0.039,-0.147
1701527956.359,19.609,19.609,-19.609,-0.0016,0.001,0.0412,0.016,-0.029,-0.149
1701527956.399,19.609,19.609,-19.609,0.0014,0.0025,-0.033,0.004,-0.003,-0.135
1701527956.439,19.609,19.609,-19.609,0.001,0.0001,0.0324,0.006,-0.018000000000000002,-0.13
1701527956.4789999,19.609,19.609,-19.609,-0.0008,0.001,-0.013600000000000001,0.021,-0.042,-0.136
1701527956.519,19.609,19.609,-19.609,-0.0026000000000000003,-0.0005,0.022000000000000002,-0.006,-0.01,-0.122
1701527956.559,19.609,19.609,-19.609,0.0,0.0029000000000000002,0.0057,0.003,-0.019,-0.122
1701527956.599,19.609,19.609,-19.609,-0.0012000000000000001,0.0015,-0.020300000000000002,0.0,-0.019,-0.126
1701527956.639,19.609,19.609,-19.609,0.0001,0.0016,0.0048000000000000004,0.007,-0.023,-0.13
1701527956.679,19.609,19.609,-19.609,0.0017000000000000001,0.0007,0.013300000000000001,0.006,-0.028,-0.123
1701527956.7189999,19.609,19.609,-19.609,-0.0006000000000000001,-0.0016,-0.0023,-0.004,-0.018000000000000002,-0.114
1701527956.759,19.609,19.609,-19.609,-0.0007,0.003,0.0012000000000000001,-0.005,-0.019,-0.111
1701527956.799,19.609,19.609,-19.609,0.0007,0.0029000000000000002,0.0025,-0.01,-0.016,-0.117
1701527956.839,19.609,19.609,-19.609,-0.0032,0.0013000000000000002,-0.0175,0.0,-0.024,-0.116
1701527956.879,19.609,19.609,-19.609,-0.0007,0.0036000000000000003,0.0374,0.002,-0.029,-0.125
1701527956.919,19.609,19.609,-19.609,-0.0005,-0.0014,-0.027200000000000002,-0.009000000000000001,-0.022,-0.132
1701527956.9589999,19.609,19.609,-19.609,-0.001,0.001,0.013900000000000001,0.002,-0.026000000000000002,-0.122
1701527956.999,19.609,19.609,-19.609,0.0006000000000000001,-0.0004,0.0097,0.0,-0.038,-0.11900000000000001
1701527957.039,19.609,19.609,-19.609,-0.0034000000000000002,0.0012000000000000001,0.0008,-0.003,-0.051000000000000004,-0.107
1701527957.079,19.609,19.609,-19.609,-0.001,-0.0002,-0.0178,0.001,-0.058,-0.093
1701527957.119,19.609,19.609,-19.609,0.0006000000000000001,0.0022,0.0081,-0.007,-0.054,-0.109
1701527957.159,19.609,19.609,-19.609,-0.0001,-0.0014,-0.020300000000000002,-0.011,-0.024,-0.10300000000000001
1701527957.199,19.609,19.609,-19.609,0.0004,0.0013000000000000002,0.0161,-0.006,-0.052000000000000005,-0.096
1701527957.239,19.609,19.609,-19.609,-0.0012000000000000001,0.0031000000000000003,0.0018000000000000002,-0.008,-0.044,-0.10200000000000001
1701527957.279,19.609,19.609,-19.609,-0.0006000000000000001,0.0018000000000000002,-0.0166,-0.019,-0.032,-0.109
1701527957.319,19.609,19.609,-19.609,0.0019,0.002,0.0227,-0.026000000000000002,-0.036000000000000004,-0.1
1701527957.359,19.609,19.609,-19.609,0.0014,0.0004,-0.0198,-0.02,-0.039,-0.097
1701527957.399,19.609,19.609,-19.609,-0.00030000000000000003,0.001,0.0286,-0.015,-0.028,-0.089
1701527957.439,19.609,19.609,-19.609,0.0007,0.0009000000000000001,-0.0048000000000000004,-0.007,-0.05,-0.091
1701527957.479,19.609,19.609,-19.609,0.0002,0.00030000000000000003,-0.0035,-0.002,-0.057,-0.091
1701527957.519,19.609,19.609,-19.609,-0.0004,0.0031000000000000003,-0.0317,0.004,-0.04,-0.099
1701527957.559,19.609,19.609,-19.609,-0.0021000000000000003,-0.0001,0.053500000000000006,0.005,-0.044,-0.1
1701527957.599,19.609,19.609,-19.609,-0.0032,0.0007,-0.005200000000000001,0.002,-0.037,-0.10300000000000001
1701527957.639,19.609,19.609,-19.609,0.0004,0.0,0.010400000000000001,0.006,-0.039,-0.111
1701527957.679,19.609,19.609,-19.609,-0.0007,0.001,-0.028,0.0,-0.046,-0.105
1701527957.719,19.609,19.609,-19.609,0.00030000000000000003,-0.0001,0.038,-0.004,-0.046,-0.107
1701527957.759,19.609,19.609,-19.609,-0.0005,0.0028,-0.0177,-0.009000000000000001,-0.033,-0.11900000000000001
1701527957.799,19.609,19.609,-19.609,-0.00030000000000000003,0.0011,0.0123,-0.003,-0.029,-0.112
1701527957.839,19.609,19.609,-19.609,-0.0012000000000000001,0.0014,0.0019,-0.007,-0.032,-0.12
1701527957.879,19.609,19.609,-19.609,0.0002,-0.001,0.015300000000000001,-0.002,-0.032,-0.121
1701527957.919,19.609,19.609,-19.609,0.0006000000000000001,0.0002,-0.012100000000000001,-0.004,-0.041,-0.123
1701527957.959,19.609,19.609,-19.609,-0.0001,0.001,0.0198,-0.003,-0.014,-0.108
1701527957.999,19.609,19.609,-19.609,0.0006000000000000001,-0.0006000000000000001,-0.0009000000000000001,-0.003,-0.038,-0.10300000000000001
1701527958.039,19.609,19.609,-19.609,-0.0004,0.0002,0.007500000000000001,-0.001,-0.03,-0.121
1701527958.079,19.609,19.609,-19.609,0.0009000000000000001,0.0017000000000000001,-0.0045000000000000005,-0.016,-0.019,-0.127
1701527958.119,19.609,19.609,-19.609,0.0015,0.0023,-0.032100000000000004,-0.015,-0.013000000000000001,-0.126
1701527958.159,19.609,19.609,-19.609,-0.001,0.001,0.0582,-0.013000000000000001,-0.022,-0.128
1701527958.199,19.609,19.609,-19.609,-0.0001,0.0,-0.0089,-0.011,-0.016,-0.128
1701527958.2389998,19.609,19.609,-19.609,-0.0008,0.0009000000000000001,-0.018600000000000002,-0.011,-0.033,-0.116
1701527958.279,19.609,19.609,-19.609,-0.0002,0.0018000000000000002,0.025500000000000002,-0.015,-0.048,-0.109
1701527958.319,19.609,19.609,-19.609,-0.0028,0.002,-0.0039000000000000003,-0.016,-0.034,-0.105
1701527958.359,19.609,19.609,-19.609,0.00030000000000000003,0.0017000000000000001,-0.006900000000000001,-0.013000000000000001,-0.046,-0.1
1701527958.399,19.609,19.609,-19.609,0.0,0.0024000000000000002,0.025,-0.009000000000000001,-0.051000000000000004,-0.101
1701527958.439,19.609,19.609,-19.609,-0.0014,0.0005,-0.0292,-0.013000000000000001,-0.053,-0.095
1701527958.4789999,19.609,19.609,-19.609,-0.0001,0.0017000000000000001,0.0166,-0.009000000000000001,-0.061,-0.097
1701527958.519,19.609,19.609,-19.609,-0.00030000000000000003,0.0031000000000000003,0.003,-0.008,-0.066,-0.097
1701527958.559,19.609,19.609,-19.609,-0.0004,0.0006000000000000001,-0.0122,-0.015,-0.058,-0.088
1701527958.599,19.609,19.609,-19.609,0.0007,0.0029000000000000002,0.0219,-0.022,-0.063,-0.069
1701527958.639,19.609,19.609,-19.609,0.0011,0.0016,-0.006200000000000001,-0.024,-0.059000000000000004,-0.069
1701527958.679,19.609,19.609,-19.609,-0.0001,0.002,-0.0322,-0.028,-0.075,-0.057
1701527958.7189999,19.609,19.609,-19.609,-0.0015,0.00030000000000000003,0.0546,-0.06,-0.1,-0.035
1701527958.759,19.609,19.609,-19.609,0.0004,0.0021000000000000003,-0.0043,-0.07200000000000001,-0.077,0.005
1701527958.799,19.609,19.609,-19.609,0.0004,0.0031000000000000003,0.0623,-0.083,-0.108,0.009000000000000001
1701527958.839,19.609,19.609,-19.609,-0.0004,0.0018000000000000002,-0.0236,-0.085,-0.082,0.007
1701527958.879,19.609,19.609,-19.609,0.00030000000000000003,0.0015,0.028,-0.111,-0.088,0.001
1701527958.919,19.609,19.609,-19.609,0.00030000000000000003,0.0004,-0.0092,-0.127,-0.081,0.004
1701527958.9589999,19.609,19.609,-19.609,0.0002,-0.0001,0.011000000000000001,-0.10300000000000001,-0.089,-0.006
1701527958.999,19.609,19.609,-19.609,0.0014,0.0008,-0.0112,-0.08600000000000001,-0.044,-0.029
1701527959.039,19.609,19.609,-19.609,-0.00030000000000000003,0.00030000000000000003,0.02,-0.049,-0.057,-0.061
1701527959.079,19.609,19.609,-19.609,-0.0011,0.0014,0.0073,-0.041,-0.044,-0.091
1701527959.119,19.609,19.609,-19.609,-0.001,0.0014,0.0043,-0.059000000000000004,-0.042,-0.095
1701527959.159,19.609,19.609,-19.609,0.0008,0.0016,-0.0123,-0.052000000000000005,-0.043000000000000003,-0.079
1701527959.199,19.609,19.609,-19.609,-0.0009000000000000001,0.00030000000000000003,-0.0001,-0.045,-0.04,-0.094
1701527959.239,19.609,19.609,-19.609,0.0005,0.00030000000000000003,0.001,-0.028,-0.045,-0.106
1701527959.279,19.609,19.609,-19.609,0.00030000000000000003,0.0016,0.0119,-0.03,-0.049,-0.107
1701527959.319,19.609,19.609,-19.609,0.0005,0.0004,0.0086,-0.06,-0.045,-0.11
1701527959.359,19.609,19.609,-19.609,-0.0007,0.0017000000000000001,-0.0103,-0.049,-0.051000000000000004,-0.099
1701527959.399,19.609,19.609,-19.609,-0.0006000000000000001,-0.0006000000000000001,-0.015600000000000001,-0.052000000000000005,-0.045,-0.093
1701527959.439,19.609,19.609,-19.609,-0.0032,0.0036000000000000003,0.0103,-0.062,-0.059000000000000004,-0.097
1701527959.479,19.609,19.609,-19.609,-0.0013000000000000002,0.0011,0.0109,-0.04,-0.053,-0.094
1701527959.519,19.609,19.609,-19.609,0.0009000000000000001,0.001,-0.0122,-0.046,-0.042,-0.08700000000000001
1701527959.559,19.609,19.609,-19.609,0.0017000000000000001,0.002,0.024300000000000002,-0.025,-0.048,-0.10200000000000001
1701527959.599,19.609,19.609,-19.609,-0.0025,0.0022,-0.012,-0.031,-0.003,-0.107
1701527959.639,19.609,19.609,-19.609,0.0016,0.0008,0.017400000000000002,-0.034,-0.026000000000000002,-0.121
1701527959.679,19.609,19.609,-19.609,0.0,0.0009000000000000001,-0.0007,-0.023,-0.027,-0.106
1701527959.719,19.609,19.609,-19.609,-0.0012000000000000001,-0.0012000000000000001,-0.0114,-0.02,-0.021,-0.11900000000000001
1701527959.759,19.609,19.609,-19.609,0.0006000000000000001,0.0012000000000000001,0.0115,-0.014,-0.001,-0.122
1701527959.799,19.609,19.609,-19.609,-0.00030000000000000003,0.0015,0.0077,-0.009000000000000001,0.0,-0.129
1701527959.839,19.609,19.609,-19.609,-0.00030000000000000003,0.0005,-0.0263,-0.008,-0.041,-0.123
1701527959.879,19.609,19.609,-19.609,-0.0008,0.0,0.033800000000000004,-0.007,-0.043000000000000003,-0.116
1701527959.919,19.609,19.609,-19.609,-0.0006000000000000001,0.002,-0.0126,-0.008,-0.034,-0.117
1701527959.959,19.609,19.609,-19.609,0.0004,0.0014,-0.0161,-0.013000000000000001,-0.034,-0.124
1701527959.999,19.609,19.609,-19.609,0.0006000000000000001,0.0007,0.042100000000000005,-0.008,-0.034,-0.133
1701527960.039,19.609,19.609,-19.609,-0.0008,0.0009000000000000001,-0.0095,-0.006,-0.038,-0.13
1701527960.079,19.609,19.609,-19.609,0.0006000000000000001,0.0048000000000000004,0.0021000000000000003,-0.012,-0.044,-0.129
1701527960.119,19.609,19.609,-19.609,0.0006000000000000001,-0.0016,-0.0216,-0.012,-0.039,-0.116
1701527960.159,19.609,19.609,-19.609,0.0,0.0008,-0.0029000000000000002,-0.015,-0.04,-0.112
1701527960.199,19.609,19.609,-19.609,-0.0006000000000000001,0.0022,0.008400000000000001,-0.026000000000000002,-0.042,-0.11800000000000001
1701527960.2389998,19.609,19.609,-19.609,0.0006000000000000001,0.0015,-0.0261,-0.013000000000000001,-0.046,-0.11800000000000001
1701527960.279,19.609,19.609,-19.609,0.0015,-0.0002,0.032600000000000004,-0.018000000000000002,-0.045,-0.112
1701527960.319,19.609,19.609,-19.609,-0.0015,0.0005,-0.0238,-0.011,-0.038,-0.092
1701527960.359,19.609,19.609,-19.609,-0.0015,-0.0006000000000000001,0.0391,-0.018000000000000002,-0.055,-0.094
1701527960.399,19.609,19.609,-19.609,0.0002,0.0017000000000000001,-0.022500000000000003,-0.035,-0.051000000000000004,-0.094
1701527960.439,19.609,19.609,-19.609,-0.0002,0.0021000000000000003,0.020300000000000002,-0.042,-0.061,-0.078
1701527960.4789999,19.609,19.609,-19.609,-0.0009000000000000001,0.0036000000000000003,0.0,-0.093,-0.073,-0.063
1701527960.519,19.609,19.609,-19.609,-0.0025,-0.0007,-0.0098,-0.114,-0.099,-0.038
1701527960.559,19.609,19.609,-19.609,-0.0002,-0.0002,-0.0122,-0.10300000000000001,-0.075,-0.038
1701527960.599,19.609,19.609,-19.609,-0.0012000000000000001,0.0006000000000000001,-0.0264,-0.09,-0.069,-0.046
1701527960.639,19.609,19.609,-19.609,-0.00030000000000000003,0.0017000000000000001,-0.007200000000000001,-0.075,-0.062,-0.06
1701527960.679,19.609,19.609,-19.609,-0.0006000000000000001,0.0015,-0.007500000000000001,-0.078,-0.064,-0.05
1701527960.7189999,19.609,19.609,-19.609,-0.0005,0.0009000000000000001,-0.007500000000000001,-0.096,-0.07200000000000001,-0.04
1701527960.759,19.609,19.609,-19.609,0.0024000000000000002,0.0016,0.037000000000000005,-0.132,-0.08700000000000001,-0.025
1701527960.799,19.609,19.609,-19.609,-0.0006000000000000001,0.001,-0.0017000000000000001,-0.226,-0.133,0.05
1701527960.839,19.609,19.609,-19.609,0.0001,0.0033,-0.0066,-0.34800000000000003,-0.171,0.14100000000000001
1701527960.879,19.609,19.609,-19.609,-0.0011,0.001,-0.0339,-0.553,-0.233,0.258
1701527960.919,19.609,19.609,-19.609,-0.0011,-0.0004,0.0623,-0.6970000000000001,-0.275,0.379
1701527960.9589999,19.609,19.609,-19.609,0.0006000000000000001,0.00030000000000000003,0.0018000000000000002,-0.886,-0.221,0.556
1701527960.999,19.609,19.609,-19.609,0.0009000000000000001,0.0004,-0.0025,-0.9390000000000001,-0.247,0.599
1701527961.039,19.609,19.609,-19.609,-0.00030000000000000003,0.0035,-0.0035,-1.067,-0.17400000000000002,0.668
1701527961.079,19.609,19.609,-19.609,0.0016,0.0019,-0.0048000000000000004,-0.997,-0.138,0.607
1701527961.119,19.609,19.609,-19.609,0.0008,0.0023,0.0227,-0.9540000000000001,-0.151,0.633
1701527961.159,19.609,19.609,-19.609,0.0019,0.0015,-0.0041,-0.884,-0.115,0.587
1701527961.199,19.609,19.609,-19.609,0.0041,0.004,0.005,-0.847,-0.044,0.504
1701527961.239,19.609,19.609,-19.609,-0.0014,0.0022,-0.041,-0.8190000000000001,-0.112,0.518
1701527961.279,19.609,19.609,-19.609,-0.0006000000000000001,0.0015,0.0601,-0.766,-0.014,0.422
1701527961.319,19.609,19.609,-19.609,0.0006000000000000001,0.001,-0.0194,-0.8190000000000001,-0.1,0.482
1701527961.359,19.609,19.609,-19.609,0.0012000000000000001,0.0007,0.009000000000000001,-0.784,-0.097,0.525
1701527961.399,19.609,19.609,-19.609,-0.0009000000000000001,0.0032,0.0048000000000000004,-0.804,0.047,0.461
1701527961.439,19.609,19.609,-19.609,-0.0006000000000000001,0.0014,0.0068000000000000005,-0.733,-0.02,0.377
1701527961.479,19.609,19.609,-19.609,-0.00030000000000000003,0.0019,-0.0012000000000000001,-0.642,0.012,0.363
1701527961.519,19.609,19.609,-19.609,-0.0017000000000000001,0.0012000000000000001,-0.001,-0.631,0.055,0.354
1701527961.559,19.609,19.609,-19.609,0.0002,0.0023,0.0108,-0.524,0.114,0.272
1701527961.599,19.609,19.609,-19.609,-0.0018000000000000002,0.0015,0.0023,-0.466,0.091,0.28400000000000003
1701527961.639,19.609,19.609,-19.609,-0.0015,0.0023,-0.0118,-0.40700000000000003,0.112,0.20600000000000002
1701527961.679,19.609,19.609,-19.609,-0.0011,0.0029000000000000002,0.0082,-0.334,0.06,0.162
1701527961.719,19.609,19.609,-19.609,-0.002,0.0032,0.0021000000000000003,-0.272,0.093,0.126
1701527961.759,19.609,19.609,-19.609,-0.0013000000000000002,0.0024000000000000002,-0.020900000000000002,-0.20700000000000002,0.049,0.06
1701527961.799,19.609,19.609,-19.609,-0.0007,0.0018000000000000002,0.0189,-0.171,0.025,-0.001
1701527961.839,19.609,19.609,-19.609,0.0013000000000000002,0.0027,0.0018000000000000002,-0.134,0.009000000000000001,-0.047
1701527961.879,19.609,19.609,-19.609,0.0014,0.002,-0.0002,-0.065,0.02,-0.083
1701527961.919,19.609,19.609,-19.609,0.0013000000000000002,0.001,-0.0033,-0.018000000000000002,0.002,-0.097
1701527961.959,19.609,19.609,-19.609,0.0007,0.0025,-0.0026000000000000003,-0.004,0.011,-0.1
1701527961.999,19.609,19.609,-19.609,0.0002,0.0048000000000000004,-0.0067,-0.003,0.009000000000000001,-0.106
1701527962.039,19.609,19.609,-19.609,-0.0001,0.0043,0.005,-0.027,0.028,-0.097
1701527962.079,19.609,19.609,-19.609,-0.0016,0.0028,-0.0001,-0.024,-0.003,-0.101
1701527962.119,19.609,19.609,-19.609,-0.0022,0.0039000000000000003,-0.001,-0.028,0.016,-0.115
1701527962.159,19.609,19.609,-19.609,-0.0007,0.0022,-0.0064,-0.024,0.007,-0.115
1701527962.199,19.609,19.609,-19.609,0.002,0.0029000000000000002,0.0027,-0.047,-0.002,-0.114
1701527962.2389998,19.609,19.609,-19.609,-0.003,0.0004,-0.0106,-0.052000000000000005,0.0,-0.133
1701527962.279,19.609,19.609,-19.609,-0.0007,0.003,0.001,-0.041,-0.024,-0.146
1701527962.319,19.609,19.609,-19.609,-0.0016,0.0008,0.011300000000000001,-0.037,-0.014,-0.153
1701527962.359,19.609,19.609,-19.609,0.0006000000000000001,0.0027,0.0204,-0.037,-0.036000000000000004,-0.149
1701527962.399,19.609,19.609,-19.609,0.0,0.0032,-0.0074,-0.034,-0.037,-0.136
1701527962.439,19.609,19.609,-19.609,-0.0006000000000000001,0.0004,-0.0089,-0.037,-0.042,-0.131
1701527962.4789999,19.609,19.609,-19.609,0.0001,0.0046,0.0076,-0.041,-0.049,-0.13
1701527962.519,19.609,19.609,-19.609,-0.0006000000000000001,0.0007,-0.016300000000000002,-0.034,-0.047,-0.132
1701527962.559,19.609,19.609,-19.609,-0.001,0.0017000000000000001,0.0369,-0.028,-0.058,-0.138
1701527962.599,19.609,19.609,-19.609,0.0008,0.0028,-0.0006000000000000001,-0.034,-0.063,-0.149
1701527962.639,19.609,19.609,-19.609,-0.0007,0.0021000000000000003,-0.0029000000000000002,-0.022,-0.052000000000000005,-0.147
1701527962.679,19.609,19.609,-19.609,0.0004,0.0034000000000000002,-0.001,-0.014,-0.043000000000000003,-0.13
1701527962.7189999,19.609,19.609,-19.609,-0.0001,0.0023,-0.0102,-0.017,-0.037,-0.12
1701527962.759,19.609,19.609,-19.609,-0.0015,0.004,-0.0106,0.01,-0.032,-0.114
1701527962.799,19.609,19.609,-19.609,-0.0001,0.0017000000000000001,0.0009000000000000001,0.0,-0.041,-0.112
1701527962.839,19.609,19.609,-19.609,-0.0017000000000000001,0.0041,0.005,0.003,-0.057,-0.116
1701527962.879,19.609,19.609,-19.609,0.0004,0.0015,-0.02,-0.004,-0.053,-0.114
1701527962.919,19.609,19.609,-19.609,0.0012000000000000001,0.0027,0.0281,0.002,-0.035,-0.107
1701527962.9589999,19.609,19.609,-19.609,0.0012000000000000001,0.0035,-0.0134,0.011,-0.044,-0.109
1701527962.999,19.609,19.609,-19.609,-0.0004,0.0021000000000000003,0.0083,0.011,-0.044,-0.1
1701527963.039,19.609,19.609,-19.609,0.0004,0.0015,-0.0053,0.008,-0.021,-0.09
1701527963.079,19.609,19.609,-19.609,-0.0015,0.0017000000000000001,-0.0098,0.009000000000000001,-0.029,-0.081
1701527963.119,19.609,19.609,-19.609,0.0005,0.0004,0.027200000000000002,-0.011,-0.03,-0.077
1701527963.159,19.609,19.609,-19.609,0.0002,0.0021000000000000003,-0.0031000000000000003,0.002,-0.03,-0.082
1701527963.199,19.609,19.609,-19.609,-0.0008,0.0014,-0.0002,0.018000000000000002,-0.04,-0.089
1701527963.239,19.609,19.609,-19.609,0.0001,0.003,-0.0079,0.021,-0.035,-0.095
1701527963.279,19.609,19.609,-19.609,-0.0006000000000000001,0.0021000000000000003,-0.0051,0.048,-0.038,-0.122
1701527963.319,19.609,19.609,-19.609,0.0004,0.0018000000000000002,-0.0057,0.091,-0.068,-0.18
1701527963.359,19.609,19.609,-19.609,-0.0016,0.0031000000000000003,0.0079,0.189,-0.159,-0.374
1701527963.399,19.609,19.609,-19.609,0.0004,0.0023,0.0085,0.301,-0.191,-0.532
1701527963.439,19.609,19.609,-19.609,0.0018000000000000002,0.0026000000000000003,-0.0016,0.47300000000000003,-0.338,-0.729
1701527963.479,19.609,19.609,-19.609,-0.0002,0.0026000000000000003,0.0114,0.626,-0.35100000000000003,-0.862
1701527963.519,19.609,19.609,-19.609,0.0007,0.0032,-0.0037,0.75,-0.16,-0.9560000000000001
1701527963.559,19.609,19.609,-19.609,0.0014,0.0014,0.005200000000000001,0.714,0.042,-0.856
1701527963.599,19.609,19.609,-19.609,0.0,0.0023,-0.020900000000000002,0.727,0.211,-0.6900000000000001
1701527963.639,19.609,19.609,-19.609,0.0,0.0029000000000000002,0.040600000000000004,0.713,0.254,-0.764
1701527963.679,19.609,19.609,-19.609,-0.0004,0.0038,-0.0063,0.629,0.242,-0.602
1701527963.719,19.609,19.609,-19.609,0.0018000000000000002,0.0023,-0.0048000000000000004,0.594,0.246,-0.628
1701527963.759,19.609,19.609,-19.609,0.0002,0.0021000000000000003,0.010100000000000001,0.463,0.23800000000000002,-0.523
1701527963.799,19.609,19.609,-19.609,-0.0011,0.0017000000000000001,0.004,0.422,0.232,-0.453
1701527963.839,19.609,19.609,-19.609,0.0001,0.0013000000000000002,0.015000000000000001,0.461,0.209,-0.537
1701527963.879,19.609,19.609,-19.609,-0.0009000000000000001,0.0023,0.0016,0.443,0.20800000000000002,-0.527
1701527963.919,19.609,19.609,-19.609,-0.0035,-0.0006000000000000001,0.0043,0.421,0.212,-0.44
1701527963.959,19.609,19.609,-19.609,-0.0006000000000000001,0.0001,0.0043,0.43,0.188,-0.42
1701527963.999,19.609,19.609,-19.609,-0.0008,-0.0002,-0.0039000000000000003,0.457,0.159,-0.399
1701527964.039,19.609,19.609,-19.609,0.0011,0.0008,-0.015300000000000001,0.425,0.147,-0.378
1701527964.079,19.609,19.609,-19.609,-0.0013000000000000002,0.0028,0.0392,0.395,0.105,-0.341
1701527964.119,19.609,19.609,-19.609,0.0011,0.0023,-0.0297,0.302,0.098,-0.254
1701527964.159,19.609,19.609,-19.609,0.0015,0.0012000000000000001,-0.0073,0.259,0.027,-0.256
1701527964.199,19.609,19.609,-19.609,0.0011,0.0021000000000000003,-0.0095,0.15,0.047,-0.196
1701527964.2389998,19.609,19.609,-19.609,0.0009000000000000001,0.0,0.0045000000000000005,0.157,-0.012,-0.177
1701527964.279,19.609,19.609,-19.609,-0.0008,-0.0001,-0.015000000000000001,0.09,-0.012,-0.171
1701527964.319,19.609,19.609,-19.609,0.0007,0.002,0.0228,0.034,-0.003,-0.161
1701527964.359,19.609,19.609,-19.609,-0.0021000000000000003,0.003,-0.020200000000000003,0.044,-0.012,-0.153
1701527964.399,19.609,19.609,-19.609,0.0019,0.0004,0.0264,0.046,-0.021,-0.149
1701527964.439,19.609,19.609,-19.609,-0.0029000000000000002,0.0017000000000000001,-0.0134,0.032,-0.003,-0.161
1701527964.4789999,19.609,19.609,-19.609,-0.001,0.0009000000000000001,-0.0045000000000000005,0.081,0.023,-0.194
1701527964.519,19.609,19.609,-19.609,-0.0008,0.0021000000000000003,0.020200000000000003,0.106,0.043000000000000003,-0.213
1701527964.559,19.609,19.609,-19.609,-0.0004,0.0017000000000000001,-0.0134,0.106,0.059000000000000004,-0.218
1701527964.599,19.609,19.609,-19.609,0.0022,-0.0002,-0.0077,0.128,0.055,-0.223
1701527964.639,19.609,19.609,-19.609,-0.0008,0.0005,0.0032,0.156,0.038,-0.218
1701527964.679,19.609,19.609,-19.609,0.001,0.0,-0.0021000000000000003,0.129,0.053,-0.192
1701527964.7189999,19.609,19.609,-19.609,-0.001,0.0006000000000000001,-0.0252,0.11,0.031,-0.182
1701527964.759,19.609,19.609,-19.609,-0.0017000000000000001,0.0012000000000000001,0.050800000000000005,0.097,0.026000000000000002,-0.163
1701527964.799,19.609,19.609,-19.609,-0.0012000000000000001,0.0011,-0.036500000000000005,0.05,0.027,-0.146
1701527964.839,19.609,19.609,-19.609,-0.001,0.0004,0.0302,0.004,-0.02,-0.117
1701527964.879,19.609,19.609,-19.609,-0.0009000000000000001,0.0015,-0.0043,-0.003,-0.049,-0.109
1701527964.919,19.609,19.609,-19.609,-0.0004,0.0032,0.0046,-0.014,-0.08600000000000001,-0.08600000000000001
1701527964.9589999,19.609,19.609,-19.609,-0.0023,0.0048000000000000004,0.0006000000000000001,-0.039,-0.114,-0.044
1701527964.999,19.609,19.609,-19.609,0.0007,0.0038,-0.01,-0.045,-0.166,-0.021
1701527965.039,19.609,19.609,-19.609,0.0018000000000000002,0.0004,0.030000000000000002,-0.059000000000000004,-0.127,-0.014
1701527965.079,19.609,19.609,-19.609,0.001,0.0036000000000000003,-0.0246,-0.095,-0.131,0.01
1701527965.119,19.609,19.609,-19.609,-0.0008,0.0005,0.0199,-0.161,-0.146,0.049
1701527965.159,19.609,19.609,-19.609,0.0019,0.0023,-0.006500000000000001,-0.249,-0.189,0.082
1701527965.199,19.609,19.609,-19.609,0.0029000000000000002,0.0007,-0.030100000000000002,-0.34700000000000003,-0.139,0.137
1701527965.239,19.609,19.609,-19.609,0.0,-0.0008,0.0356,-0.425,-0.211,0.188
1701527965.279,19.609,19.609,-19.609,-0.0017000000000000001,0.0033,-0.0079,-0.437,-0.225,0.217
1701527965.319,19.609,19.609,-19.609,-0.0016,0.0027,0.007,-0.515,-0.217,0.272
1701527965.359,19.609,19.609,-19.609,0.0018000000000000002,0.002,-0.0142,-0.5630000000000001,-0.28300000000000003,0.299
1701527965.399,19.609,19.609,-19.609,0.0002,0.0004,0.0233,-0.614,-0.27,0.297
1701527965.439,19.609,19.609,-19.609,0.0,0.0012000000000000001,-0.0089,-0.675,-0.257,0.315
1701527965.479,19.609,19.609,-19.609,0.0007,0.0006000000000000001,-0.0327,-0.714,-0.268,0.33
1701527965.519,19.609,19.609,-19.609,-0.00030000000000000003,0.0027,0.0584,-0.771,-0.248,0.329
1701527965.559,19.609,19.609,-19.609,0.002,0.0001,-0.008700000000000001,-0.8200000000000001,-0.17,0.354
1701527965.599,19.609,19.609,-19.609,-0.00030000000000000003,0.001,-0.0149,-0.916,-0.123,0.387
1701527965.639,19.609,19.609,-19.609,0.0011,0.0023,0.033600000000000005,-0.973,-0.041,0.394
1701527965.679,19.609,19.609,-19.609,-0.00030000000000000003,0.0029000000000000002,0.0014,-1.03,0.0,0.42
1701527965.719,19.609,19.609,-19.609,0.0014,0.0032,-0.006,-1.096,-0.003,0.492
1701527965.759,19.609,19.609,-19.609,0.0014,0.0028,-0.0022,-1.065,0.035,0.525
1701527965.799,19.609,19.609,-19.609,0.0004,0.0025,0.0011,-1.059,-0.003,0.518
1701527965.839,19.609,19.609,-19.609,-0.00030000000000000003,0.0016,0.0031000000000000003,-1.085,-0.031,0.515
1701527965.879,19.609,19.609,-19.609,0.001,-0.0006000000000000001,-0.0213,-1.081,-0.112,0.496
1701527965.919,19.609,19.609,-19.609,0.00030000000000000003,0.0026000000000000003,0.059500000000000004,-1.1360000000000001,-0.14300000000000002,0.483
1701527965.959,19.609,19.609,-19.609,0.0001,0.0023,-0.029500000000000002,-1.229,-0.202,0.457
1701527965.999,19.609,19.609,-19.609,-0.0011,0.0031000000000000003,0.0015,-1.272,-0.281,0.41400000000000003
1701527966.039,19.609,19.609,-19.609,0.0024000000000000002,-0.0009000000000000001,-0.013000000000000001,-1.334,-0.289,0.375
1701527966.079,19.609,19.609,-19.609,0.0012000000000000001,-0.00030000000000000003,0.0078000000000000005,-1.318,-0.319,0.343
1701527966.119,19.609,19.609,-19.609,0.0007,0.0025,0.0029000000000000002,-1.247,-0.327,0.333
1701527966.159,19.609,19.609,-19.609,-0.0025,0.0026000000000000003,0.0017000000000000001,-1.188,-0.291,0.375
1701527966.199,19.609,19.609,-19.609,0.0013000000000000002,0.0002,0.0021000000000000003,-1.211,-0.302,0.425
1701527966.2389998,19.609,19.609,-19.609,-0.0007,0.0007,-0.0064,-1.213,-0.264,0.491
1701527966.279,19.609,19.609,-19.609,0.0009000000000000001,0.0036000000000000003,0.008700000000000001,-1.209,-0.251,0.513
1701527966.319,19.609,19.609,-19.609,-0.00030000000000000003,0.0028,0.0034000000000000002,-1.1480000000000001,-0.247,0.524
1701527966.359,19.609,19.609,-19.609,0.001,0.0029000000000000002,0.0004,-1.073,-0.20700000000000002,0.543
1701527966.399,19.609,19.609,-19.609,0.0053,0.0023,0.0048000000000000004,-0.965,-0.192,0.499
1701527966.439,19.609,19.609,-19.609,0.0011,0.0034000000000000002,0.0039000000000000003,-0.925,-0.17,0.495
1701527966.4789999,19.609,19.609,-19.609,0.0002,0.0001,0.0036000000000000003,-0.905,-0.184,0.523
1701527966.519,19.609,19.609,-19.609,0.0007,0.0023,-0.0011,-0.905,-0.227,0.527
1701527966.559,19.609,19.609,-19.609,-0.00030000000000000003,0.0017000000000000001,0.0015,-0.924,-0.202,0.507
1701527966.599,19.609,19.609,-19.609,0.00030000000000000003,0.003,0.010400000000000001,-0.994,-0.15,0.503
1701527966.639,19.609,19.609,-19.609,0.0028,0.0033,-0.0039000000000000003,-1.089,-0.137,0.531
1701527966.679,19.609,19.609,-19.609,-0.0002,0.0025,0.0086,-1.119,-0.039,0.5690000000000001
1701527966.7189999,19.609,19.609,-19.609,0.0009000000000000001,0.0039000000000000003,0.008700000000000001,-1.127,-0.02,0.5710000000000001
1701527966.759,19.609,19.609,-19.609,0.0005,-0.00030000000000000003,0.0015,-1.104,0.021,0.55
1701527966.799,19.609,19.609,-19.609,0.0023,0.0025,0.0066,-1.149,0.113,0.525
1701527966.839,19.609,19.609,-19.609,0.00030000000000000003,0.0004,0.0015,-1.193,0.096,0.51
1701527966.879,19.609,19.609,-19.609,0.004200000000000001,0.002,0.0079,-1.181,0.1,0.517
1701527966.919,19.609,19.609,-19.609,0.0017000000000000001,0.002,0.006,-1.173,0.064,0.541
1701527966.9589999,19.609,19.609,-19.609,0.0019,0.002,-0.0004,-1.124,0.039,0.554
1701527966.999,19.609,19.609,-19.609,0.0,0.0015,0.014400000000000001,-1.079,0.015,0.549
1701527967.039,19.609,19.609,-19.609,0.0009000000000000001,0.0022,0.0102,-0.973,0.025,0.535
1701527967.079,19.609,19.609,-19.609,-0.00030000000000000003,0.0007,0.0061,-0.917,-0.004,0.507
1701527967.119,19.609,19.609,-19.609,-0.0007,0.0009000000000000001,0.0049,-0.856,-0.081,0.49
1701527967.159,19.609,19.609,-19.609,0.001,0.002,0.0068000000000000005,-0.811,-0.124,0.487
1701527967.199,19.609,19.609,-19.609,0.0008,0.0011,0.008400000000000001,-0.795,-0.186,0.496
