timestamp,acc_x,acc_y,acc_z,magn_x,magn_y,magn_z,gyro_x,gyro_y,gyro_z
1701528085.789,19.609,19.609,-19.609,0.0015,0.0008,0.0007,-0.868,-0.62,0.583
1701528085.829,19.609,19.609,-19.609,-0.0007,0.0023,-0.0048000000000000004,0.019,-0.034,0.009000000000000001
1701528085.869,19.609,19.609,-19.609,0.0022,0.0025,0.0017000000000000001,0.027,-0.029,0.011
1701528085.909,19.609,19.609,-19.609,0.002,0.0031000000000000003,-0.0005,0.066,-0.011,-0.006
1701528085.949,19.609,19.609,-19.609,0.0009000000000000001,0.003,-0.0043,0.076,-0.022,-0.037
1701528085.9889998,19.609,19.609,-19.609,0.0019,0.0046,-0.0015,0.069,-0.013000000000000001,-0.056
1701528086.029,19.609,19.609,-19.609,-0.0009000000000000001,0.0028,-0.003,0.069,-0.005,-0.076
1701528086.069,19.609,19.609,-19.609,0.0034000000000000002,0.0023,-0.0014,0.039,-0.021,-0.092
1701528086.109,19.609,19.609,-19.609,0.0025,0.0016,0.0012000000000000001,0.026000000000000002,-0.026000000000000002,-0.106
1701528086.149,19.609,19.609,-19.609,0.0046,0.0032,-0.0048000000000000004,0.024,-0.027,-0.108
1701528086.189,19.609,19.609,-19.609,0.0034000000000000002,0.001,-0.001,0.001,-0.016,-0.117
1701528086.2289999,19.609,19.609,-19.609,-0.0006000000000000001,0.0036000000000000003,-0.0048000000000000004,-0.019,-0.012,-0.115
1701528086.269,19.609,19.609,-19.609,0.001,0.0032,0.0059,-0.017,-0.017,-0.101
1701528086.309,19.609,19.609,-19.609,0.0009000000000000001,0.0023,-0.017,-0.006,-0.028,-0.11
1701528086.349,19.609,19.609,-19.609,0.002,0.0017000000000000001,-0.0023,-0.002,-0.027,-0.105
1701528086.389,19.609,19.609,-19.609,-0.0001,0.0029000000000000002,0.00030000000000000003,-0.013000000000000001,-0.025,-0.095
1701528086.429,19.609,19.609,-19.609,0.0004,0.0026000000000000003,-0.0056,-0.012,-0.035,-0.079
1701528086.4689999,19.609,19.609,-19.609,-0.0002,0.0033,-0.0015,-0.012,-0.031,-0.08600000000000001
1701528086.509,19.609,19.609,-19.609,0.0048000000000000004,0.0014,-0.0026000000000000003,-0.004,-0.037,-0.09
1701528086.549,19.609,19.609,-19.609,0.0021000000000000003,0.004,-0.005,0.013000000000000001,-0.041,-0.094
1701528086.589,19.609,19.609,-19.609,0.0014,0.0026000000000000003,-0.011300000000000001,0.006,-0.04,-0.10300000000000001
1701528086.629,19.609,19.609,-19.609,0.0025,0.0009000000000000001,0.009000000000000001,0.007,-0.039,-0.1
1701528086.669,19.609,19.609,-19.609,0.0001,0.0015,0.0,0.004,-0.042,-0.101
1701528086.7089999,19.609,19.609,-19.609,-0.0009000000000000001,0.0026000000000000003,-0.0021000000000000003,-0.007,-0.042,-0.107
1701528086.749,19.609,19.609,-19.609,0.0022,0.0038,0.0048000000000000004,-0.014,-0.047,-0.117
1701528086.789,19.609,19.609,-19.609,0.0009000000000000001,0.0026000000000000003,-0.0035,-0.016,-0.037,-0.122
1701528086.829,19.609,19.609,-19.609,0.0021000000000000003,0.0023,0.0056,-0.02,-0.039,-0.11900000000000001
1701528086.869,19.609,19.609,-19.609,-0.0015,0.0029000000000000002,-0.0018000000000000002,-0.007,-0.044,-0.116
1701528086.909,19.609,19.609,-19.609,0.0014,0.0007,-0.0086,-0.018000000000000002,-0.043000000000000003,-0.121
1701528086.949,19.609,19.609,-19.609,0.0022,0.0016,-0.0021000000000000003,-0.008,-0.045,-0.12
1701528086.989,19.609,19.609,-19.609,0.0018000000000000002,0.002,0.0026000000000000003,-0.014,-0.049,-0.10400000000000001
1701528087.029,19.609,19.609,-19.609,0.0006000000000000001,0.004200000000000001,-0.0008,-0.005,-0.052000000000000005,-0.108
1701528087.069,19.609,19.609,-19.609,0.0017000000000000001,0.0025,0.0012000000000000001,-0.005,-0.043000000000000003,-0.117
1701528087.109,19.609,19.609,-19.609,-0.0001,0.0022,0.0014,-0.003,-0.049,-0.12
1701528087.149,19.609,19.609,-19.609,-0.0004,0.0043,-0.008700000000000001,-0.003,-0.048,-0.11800000000000001
1701528087.189,19.609,19.609,-19.609,0.0001,0.0033,0.0061,-0.02,-0.062,-0.11
1701528087.229,19.609,19.609,-19.609,-0.0004,0.004,-0.006200000000000001,-0.025,-0.049,-0.105
1701528087.269,19.609,19.609,-19.609,0.0014,0.0016,-0.0002,-0.03,-0.039,-0.094
1701528087.309,19.609,19.609,-19.609,0.0034000000000000002,0.001,-0.0033,-0.034,-0.03,-0.098
1701528087.349,19.609,19.609,-19.609,0.0009000000000000001,0.0025,0.0067,-0.028,-0.035,-0.10300000000000001
1701528087.389,19.609,19.609,-19.609,0.0021000000000000003,0.004,-0.0053,-0.021,-0.038,-0.083
1701528087.429,19.609,19.609,-19.609,0.0032,0.004200000000000001,-0.0001,-0.024,-0.048,-0.085
1701528087.469,19.609,19.609,-19.609,0.0018000000000000002,0.005200000000000001,-0.0045000000000000005,-0.019,-0.045,-0.094
1701528087.509,19.609,19.609,-19.609,0.0023,0.0028,-0.0028,-0.024,-0.038,-0.093
1701528087.549,19.609,19.609,-19.609,0.0013000000000000002,0.0014,-0.0034000000000000002,-0.021,-0.047,-0.092
1701528087.589,19.609,19.609,-19.609,-0.0001,0.0034000000000000002,-0.0021000000000000003,-0.022,-0.056,-0.095
1701528087.629,19.609,19.609,-19.609,0.0015,0.001,-0.0017000000000000001,-0.028,-0.053,-0.094
1701528087.669,19.609,19.609,-19.609,-0.001,0.0025,0.0,-0.028,-0.048,-0.10300000000000001
1701528087.709,19.609,19.609,-19.609,0.0009000000000000001,0.0032,0.0028,-0.021,-0.052000000000000005,-0.096
1701528087.749,19.609,19.609,-19.609,0.0006000000000000001,0.0031000000000000003,-0.0014,-0.009000000000000001,-0.046,-0.10400000000000001
1701528087.789,19.609,19.609,-19.609,0.004200000000000001,0.0019,-0.0027,-0.011,-0.059000000000000004,-0.10300000000000001
1701528087.829,19.609,19.609,-19.609,0.0009000000000000001,0.0013000000000000002,-0.0046,-0.019,-0.065,-0.095
1701528087.869,19.609,19.609,-19.609,0.0014,0.0014,-0.0022,-0.031,-0.08,-0.099
1701528087.909,19.609,19.609,-19.609,0.0014,0.0023,0.0006000000000000001,-0.035,-0.089,-0.109
1701528087.949,19.609,19.609,-19.609,0.0006000000000000001,0.0016,-0.003,-0.045,-0.08600000000000001,-0.10300000000000001
1701528087.9889998,19.609,19.609,-19.609,0.0008,0.0017000000000000001,-0.0257,-0.029,-0.064,-0.09
1701528088.029,19.609,19.609,-19.609,-0.0014,0.0025,-0.0179,-0.028,-0.074,-0.085
1701528088.069,19.609,19.609,-19.609,0.0015,0.0015,-0.0076,-0.018000000000000002,-0.055,-0.084
1701528088.109,19.609,19.609,-19.609,0.002,0.0018000000000000002,0.0067,0.0,-0.058,-0.076
1701528088.149,19.609,19.609,-19.609,-0.0006000000000000001,0.0,0.0001,-0.004,-0.05,-0.1
1701528088.189,19.609,19.609,-19.609,0.0029000000000000002,0.0023,-0.0053,0.003,-0.041,-0.11
1701528088.2289999,19.609,19.609,-19.609,-0.0008,0.003,0.0,0.018000000000000002,-0.063,-0.11800000000000001
1701528088.269,19.609,19.609,-19.609,0.0011,0.0023,-0.0009000000000000001,0.008,-0.067,-0.121
1701528088.309,19.609,19.609,-19.609,0.0018000000000000002,0.0021000000000000003,-0.0032,0.001,-0.075,-0.122
1701528088.349,19.609,19.609,-19.609,-0.0006000000000000001,0.0029000000000000002,-0.0034000000000000002,0.0,-0.07,-0.116
1701528088.389,19.609,19.609,-19.609,0.0024000000000000002,0.0034000000000000002,-0.0009000000000000001,-0.005,-0.07200000000000001,-0.11900000000000001
1701528088.429,19.609,19.609,-19.609,-0.0011,0.0014,-0.0033,-0.008,-0.06,-0.113
1701528088.4689999,19.609,19.609,-19.609,0.0001,0.0011,-0.0009000000000000001,-0.003,-0.052000000000000005,-0.11
1701528088.509,19.609,19.609,-19.609,0.001,0.0004,-0.0061,-0.007,-0.047,-0.113
1701528088.549,19.609,19.609,-19.609,0.0015,0.0038,-0.0021000000000000003,-0.033,-0.048,-0.108
1701528088.589,19.609,19.609,-19.609,0.0046,0.0019,-0.0044,-0.003,-0.05,-0.10200000000000001
1701528088.629,19.609,19.609,-19.609,0.004,0.0034000000000000002,0.0025,-0.009000000000000001,-0.09,-0.105
1701528088.669,19.609,19.609,-19.609,0.00030000000000000003,0.0028,0.0009000000000000001,0.009000000000000001,-0.055,-0.098
1701528088.7089999,19.609,19.609,-19.609,0.0021000000000000003,0.0048000000000000004,-0.0004,-0.003,-0.057,-0.10300000000000001
1701528088.749,19.609,19.609,-19.609,0.0001,0.0037,-0.004200000000000001,-0.01,-0.048,-0.096
1701528088.789,19.609,19.609,-19.609,0.0008,0.002,0.006500000000000001,-0.001,-0.044,-0.097
1701528088.829,19.609,19.609,-19.609,0.0006000000000000001,0.0029000000000000002,-0.005,-0.023,-0.038,-0.10200000000000001
1701528088.869,19.609,19.609,-19.609,0.0026000000000000003,0.0004,-0.0045000000000000005,0.0,-0.044,-0.105
1701528088.909,19.609,19.609,-19.609,-0.0014,0.00030000000000000003,-0.0053,-0.003,-0.015,-0.105
1701528088.949,19.609,19.609,-19.609,0.0001,0.0012000000000000001,-0.001,0.003,-0.046,-0.096
1701528088.989,19.609,19.609,-19.609,0.0014,0.0033,0.0015,-0.009000000000000001,-0.037,-0.107
1701528089.029,19.609,19.609,-19.609,0.0006000000000000001,0.003,-0.0029000000000000002,-0.017,-0.05,-0.095
1701528089.069,19.609,19.609,-19.609,0.0013000000000000002,0.0017000000000000001,-0.0014,-0.038,-0.064,-0.083
1701528089.109,19.609,19.609,-19.609,0.0015,0.0026000000000000003,-0.0045000000000000005,-0.045,-0.07100000000000001,-0.081
1701528089.149,19.609,19.609,-19.609,0.0019,0.0038,-0.0055000000000000005,-0.052000000000000005,-0.088,-0.092
1701528089.189,19.609,19.609,-19.609,0.0002,0.004,0.0024000000000000002,-0.065,-0.085,-0.093
1701528089.229,19.609,19.609,-19.609,0.0012000000000000001,0.004,-0.0023,-0.064,-0.07100000000000001,-0.089
1701528089.269,19.609,19.609,-19.609,0.0018000000000000002,0.0018000000000000002,-0.0059,-0.085,-0.107,-0.076
1701528089.309,19.609,19.609,-19.609,-0.0006000000000000001,0.0037,-0.0025,-0.10300000000000001,-0.138,-0.052000000000000005
1701528089.349,19.609,19.609,-19.609,0.002,0.0009000000000000001,0.0037,-0.125,-0.16,-0.034
1701528089.389,19.609,19.609,-19.609,0.0012000000000000001,0.004,-0.0043,-0.109,-0.185,-0.057
1701528089.429,19.609,19.609,-19.609,0.002,0.0013000000000000002,-0.0079,-0.098,-0.182,-0.07200000000000001
1701528089.469,19.609,19.609,-19.609,0.0023,0.0024000000000000002,-0.0029000000000000002,-0.099,-0.162,-0.149
1701528089.509,19.609,19.609,-19.609,0.001,0.0012000000000000001,0.0054,-0.082,-0.14100000000000001,-0.14400000000000002
1701528089.549,19.609,19.609,-19.609,-0.0004,0.0036000000000000003,-0.0024000000000000002,-0.10200000000000001,-0.13,-0.122
1701528089.589,19.609,19.609,-19.609,0.0,0.0006000000000000001,-0.0016,-0.11900000000000001,-0.195,-0.095
1701528089.629,19.609,19.609,-19.609,0.0027,0.0018000000000000002,0.0014,-0.147,-0.159,-0.04
1701528089.669,19.609,19.609,-19.609,0.0009000000000000001,-0.0004,-0.0004,-0.15,-0.113,-0.047
1701528089.709,19.609,19.609,-19.609,0.0014,0.001,0.0004,-0.117,-0.10200000000000001,-0.077
1701528089.749,19.609,19.609,-19.609,0.002,0.0018000000000000002,-0.0015,-0.106,-0.079,-0.08
1701528089.789,19.609,19.609,-19.609,-0.0009000000000000001,0.0014,0.0,-0.082,-0.10200000000000001,-0.085
1701528089.829,19.609,19.609,-19.609,0.0006000000000000001,0.0009000000000000001,0.019100000000000002,-0.084,-0.091,-0.082
1701528089.869,19.609,19.609,-19.609,0.0022,0.0012000000000000001,0.0073,-0.07200000000000001,-0.077,-0.099
1701528089.909,19.609,19.609,-19.609,0.00030000000000000003,0.0023,0.0013000000000000002,-0.056,-0.089,-0.10200000000000001
1701528089.949,19.609,19.609,-19.609,-0.0013000000000000002,0.0036000000000000003,0.0099,-0.05,-0.105,-0.108
1701528089.9889998,19.609,19.609,-19.609,0.0026000000000000003,0.0057,-0.004200000000000001,-0.03,-0.093,-0.127
1701528090.029,19.609,19.609,-19.609,0.0019,0.002,-0.0079,0.008,-0.076,-0.166
1701528090.069,19.609,19.609,-19.609,0.0023,0.0023,-0.0045000000000000005,0.033,-0.056,-0.178
1701528090.109,19.609,19.609,-19.609,0.0025,0.004,0.0034000000000000002,0.09,-0.018000000000000002,-0.195
1701528090.149,19.609,19.609,-19.609,0.001,0.0017000000000000001,-0.0073,0.08700000000000001,-0.011,-0.189
1701528090.189,19.609,19.609,-19.609,0.0012000000000000001,0.0031000000000000003,0.007500000000000001,0.07100000000000001,0.004,-0.165
1701528090.2289999,19.609,19.609,-19.609,0.0023,0.003,-0.0019,0.048,0.001,-0.146
1701528090.269,19.609,19.609,-19.609,-0.0007,0.002,-0.0032,0.022,0.0,-0.10300000000000001
1701528090.309,19.609,19.609,-19.609,0.0002,0.0006000000000000001,-0.0053,0.014,0.007,-0.09
1701528090.349,19.609,19.609,-19.609,0.0014,0.0028,0.0,0.016,0.022,-0.069
1701528090.389,19.609,19.609,-19.609,-0.0018000000000000002,0.0026000000000000003,-0.0059,0.023,0.026000000000000002,-0.043000000000000003
1701528090.429,19.609,19.609,-19.609,0.0009000000000000001,0.0017000000000000001,-0.004,-0.003,0.045,-0.017
1701528090.4689999,19.609,19.609,-19.609,0.0025,0.0018000000000000002,-0.0026000000000000003,-0.002,0.023,0.009000000000000001
1701528090.509,19.609,19.609,-19.609,0.0012000000000000001,0.0028,-0.0106,-0.001,-0.015,0.022
1701528090.549,19.609,19.609,-19.609,0.0006000000000000001,0.002,-0.0036000000000000003,0.014,-0.023,0.04
1701528090.589,19.609,19.609,-19.609,0.0,0.0012000000000000001,-0.0032,0.015,-0.048,0.04
1701528090.629,19.609,19.609,-19.609,0.002,0.0028,0.0031000000000000003,0.011,-0.02,0.055
1701528090.669,19.609,19.609,-19.609,0.0005,0.0014,-0.0008,0.014,-0.022,0.04
1701528090.7089999,19.609,19.609,-19.609,0.002,0.001,-0.009000000000000001,0.003,-0.034,0.007
1701528090.749,19.609,19.609,-19.609,0.0006000000000000001,0.0031000000000000003,0.0036000000000000003,0.026000000000000002,0.001,-0.019
1701528090.789,19.609,19.609,-19.609,0.0016,0.0027,0.00030000000000000003,0.038,0.0,-0.038
1701528090.829,19.609,19.609,-19.609,0.0024000000000000002,0.0021000000000000003,-0.0047,0.051000000000000004,-0.01,-0.051000000000000004
1701528090.869,19.609,19.609,-19.609,-0.0018000000000000002,0.0034000000000000002,0.0026000000000000003,0.029,-0.022,-0.075
1701528090.909,19.609,19.609,-19.609,-0.00030000000000000003,0.0037,-0.0045000000000000005,0.028,-0.015,-0.081
1701528090.949,19.609,19.609,-19.609,0.0,0.0028,0.0067,0.007,-0.012,-0.083
1701528090.989,19.609,19.609,-19.609,0.0006000000000000001,0.0029000000000000002,-0.0083,0.01,-0.012,-0.101
1701528091.029,19.609,19.609,-19.609,-0.001,0.0026000000000000003,0.0015,0.014,-0.005,-0.10300000000000001
1701528091.069,19.609,19.609,-19.609,0.0007,0.0025,-0.0016,0.005,0.0,-0.106
1701528091.109,19.609,19.609,-19.609,0.0027,0.0036000000000000003,-0.0038,0.005,-0.01,-0.097
1701528091.149,19.609,19.609,-19.609,0.00030000000000000003,0.004200000000000001,-0.006900000000000001,0.003,-0.022,-0.095
1701528091.189,19.609,19.609,-19.609,-0.0002,0.003,0.0009000000000000001,-0.003,-0.02,-0.10200000000000001
1701528091.229,19.609,19.609,-19.609,0.0017000000000000001,0.0029000000000000002,0.0037,-0.002,-0.02,-0.098
1701528091.269,19.609,19.609,-19.609,0.0009000000000000001,0.0016,-0.0046,-0.001,-0.014,-0.08700000000000001
1701528091.309,19.609,19.609,-19.609,0.00030000000000000003,0.0009000000000000001,-0.0057,-0.005,-0.008,-0.08600000000000001
1701528091.349,19.609,19.609,-19.609,0.0,0.0036000000000000003,0.0079,0.002,-0.012,-0.095
1701528091.389,19.609,19.609,-19.609,0.0046,0.0021000000000000003,0.0018000000000000002,0.004,-0.027,-0.111
1701528091.429,19.609,19.609,-19.609,-0.0014,0.002,-0.0035,-0.001,-0.029,-0.105
1701528091.469,19.609,19.609,-19.609,0.0001,0.0033,0.0051,-0.007,-0.017,-0.101
1701528091.509,19.609,19.609,-19.609,0.0023,0.0023,-0.0098,0.001,-0.031,-0.106
1701528091.549,19.609,19.609,-19.609,0.0021000000000000003,0.0032,-0.0018000000000000002,-0.005,-0.043000000000000003,-0.097
1701528091.589,19.609,19.609,-19.609,0.0007,0.005,-0.0109,-0.001,-0.044,-0.105
1701528091.629,19.609,19.609,-19.609,0.0016,0.003,0.020200000000000003,0.001,-0.039,-0.106
1701528091.669,19.609,19.609,-19.609,0.0002,0.0026000000000000003,0.0043,0.01,-0.049,-0.113
1701528091.709,19.609,19.609,-19.609,0.0001,0.002,-0.0048000000000000004,0.005,-0.042,-0.111
1701528091.749,19.609,19.609,-19.609,0.00030000000000000003,0.0028,-0.005,-0.001,-0.045,-0.114
1701528091.789,19.609,19.609,-19.609,0.0025,-0.0014,-0.0028,0.003,-0.055,-0.113
1701528091.829,19.609,19.609,-19.609,0.002,0.0029000000000000002,0.0061,0.002,-0.05,-0.116
1701528091.869,19.609,19.609,-19.609,0.00030000000000000003,0.0033,-0.0045000000000000005,-0.003,-0.041,-0.11900000000000001
1701528091.909,19.609,19.609,-19.609,0.0023,0.0028,0.0011,-0.002,-0.047,-0.11900000000000001
1701528091.949,19.609,19.609,-19.609,0.0028,0.0026000000000000003,-0.0028,0.003,-0.053,-0.11900000000000001
1701528091.9889998,19.609,19.609,-19.609,0.0039000000000000003,0.0024000000000000002,-0.0018000000000000002,-0.013000000000000001,-0.048,-0.106
1701528092.029,19.609,19.609,-19.609,0.0012000000000000001,0.002,-0.0009000000000000001,-0.008,-0.043000000000000003,-0.107
1701528092.069,19.609,19.609,-19.609,0.0026000000000000003,0.0049,-0.0125,0.0,-0.024,-0.126
1701528092.109,19.609,19.609,-19.609,0.0005,0.0015,0.0095,0.009000000000000001,-0.037,-0.129
1701528092.149,19.609,19.609,-19.609,0.0014,0.0045000000000000005,0.0023,0.0,-0.01,-0.137
1701528092.189,19.609,19.609,-19.609,-0.0005,0.0035,-0.0006000000000000001,0.001,-0.005,-0.137
1701528092.2289999,19.609,19.609,-19.609,0.001,0.0036000000000000003,-0.0029000000000000002,-0.029,-0.014,-0.131
1701528092.269,19.609,19.609,-19.609,0.0022,0.0034000000000000002,-0.0012000000000000001,-0.002,0.006,-0.138
1701528092.309,19.609,19.609,-19.609,0.0021000000000000003,0.0007,-0.0015,0.0,-0.006,-0.14400000000000002
1701528092.349,19.609,19.609,-19.609,0.0031000000000000003,0.0018000000000000002,-0.0172,0.013000000000000001,0.001,-0.171
1701528092.389,19.609,19.609,-19.609,0.0021000000000000003,0.0016,0.0013000000000000002,0.022,0.003,-0.171
1701528092.429,19.609,19.609,-19.609,0.0001,0.0019,-0.0006000000000000001,0.029,0.007,-0.20400000000000001
1701528092.4689999,19.609,19.609,-19.609,0.0034000000000000002,0.0034000000000000002,-0.0033,0.038,0.054,-0.194
1701528092.509,19.609,19.609,-19.609,0.0011,0.0039000000000000003,0.0015,0.027,0.016,-0.187
1701528092.549,19.609,19.609,-19.609,0.0012000000000000001,0.004200000000000001,0.0001,0.025,0.008,-0.185
1701528092.589,19.609,19.609,-19.609,-0.0002,-0.0001,-0.0041,0.031,0.021,-0.191
1701528092.629,19.609,19.609,-19.609,0.0,0.0036000000000000003,-0.0016,0.029,0.015,-0.17300000000000001
1701528092.669,19.609,19.609,-19.609,-0.0004,0.0028,-0.0026000000000000003,0.046,0.02,-0.187
1701528092.7089999,19.609,19.609,-19.609,0.0019,0.0044,-0.0019,0.021,0.011,-0.184
1701528092.749,19.609,19.609,-19.609,0.0017000000000000001,0.0034000000000000002,-0.0056,0.048,0.025,-0.20600000000000002
1701528092.789,19.609,19.609,-19.609,0.0016,0.0029000000000000002,-0.0014,0.062,0.037,-0.223
1701528092.829,19.609,19.609,-19.609,0.0009000000000000001,0.0032,-0.0015,0.065,0.041,-0.213
1701528092.869,19.609,19.609,-19.609,0.0014,0.0014,-0.0049,0.084,0.052000000000000005,-0.223
1701528092.909,19.609,19.609,-19.609,0.0006000000000000001,0.0018000000000000002,-0.0013000000000000002,0.10200000000000001,0.038,-0.242
1701528092.949,19.609,19.609,-19.609,0.0011,0.0002,0.0014,0.105,0.049,-0.223
1701528092.989,19.609,19.609,-19.609,0.0008,0.005200000000000001,0.0009000000000000001,0.079,0.029,-0.17300000000000001
1701528093.029,19.609,19.609,-19.609,0.0016,0.004200000000000001,-0.0076,0.042,0.011,-0.14300000000000002
1701528093.069,19.609,19.609,-19.609,0.0012000000000000001,0.0011,-0.01,0.012,-0.004,-0.101
1701528093.109,19.609,19.609,-19.609,0.0006000000000000001,0.0007,-0.006,0.007,-0.013000000000000001,-0.101
1701528093.149,19.609,19.609,-19.609,0.0024000000000000002,0.0015,-0.0039000000000000003,0.005,-0.02,-0.10200000000000001
1701528093.189,19.609,19.609,-19.609,-0.0005,0.002,0.0028,0.007,-0.022,-0.108
1701528093.229,19.609,19.609,-19.609,-0.0006000000000000001,0.0009000000000000001,-0.0017000000000000001,0.008,-0.019,-0.109
1701528093.269,19.609,19.609,-19.609,-0.00030000000000000003,0.0017000000000000001,-0.001,0.01,-0.038,-0.105
1701528093.309,19.609,19.609,-19.609,-0.00030000000000000003,0.002,-0.0004,0.002,-0.041,-0.10400000000000001
1701528093.349,19.609,19.609,-19.609,-0.0006000000000000001,0.0001,-0.0036000000000000003,0.005,-0.047,-0.105
1701528093.389,19.609,19.609,-19.609,0.0013000000000000002,0.0032,-0.0029000000000000002,0.005,-0.053,-0.111
1701528093.429,19.609,19.609,-19.609,0.0006000000000000001,0.0019,0.0125,0.012,-0.052000000000000005,-0.107
1701528093.469,19.609,19.609,-19.609,0.0025,0.0018000000000000002,0.0038,0.012,-0.057,-0.11
1701528093.509,19.609,19.609,-19.609,0.0025,0.0046,-0.0021000000000000003,0.007,-0.05,-0.111
1701528093.549,19.609,19.609,-19.609,-0.0012000000000000001,0.003,0.0054,0.003,-0.052000000000000005,-0.10300000000000001
1701528093.589,19.609,19.609,-19.609,-0.0001,0.0047,-0.0068000000000000005,-0.007,-0.047,-0.10400000000000001
1701528093.629,19.609,19.609,-19.609,0.0006000000000000001,0.0013000000000000002,0.0012000000000000001,0.0,-0.051000000000000004,-0.094
1701528093.669,19.609,19.609,-19.609,0.0009000000000000001,0.004,-0.0021000000000000003,-0.003,-0.045,-0.093
1701528093.709,19.609,19.609,-19.609,0.0019,0.0031000000000000003,-0.0054,-0.003,-0.049,-0.09
1701528093.749,19.609,19.609,-19.609,-0.0006000000000000001,0.0006000000000000001,0.0036000000000000003,0.002,-0.046,-0.095
1701528093.789,19.609,19.609,-19.609,0.0026000000000000003,0.002,0.005,-0.008,-0.055,-0.101
1701528093.829,19.609,19.609,-19.609,0.0001,0.004,0.0061,0.006,-0.062,-0.098
1701528093.869,19.609,19.609,-19.609,-0.0011,0.0028,-0.0004,-0.002,-0.05,-0.092
1701528093.909,19.609,19.609,-19.609,0.0023,0.0019,-0.0043,0.0,-0.041,-0.094
1701528093.949,19.609,19.609,-19.609,0.0014,0.0019,0.0002,0.002,-0.036000000000000004,-0.093
1701528093.9889998,19.609,19.609,-19.609,0.0029000000000000002,0.0029000000000000002,-0.0063,0.018000000000000002,-0.048,-0.094
1701528094.029,19.609,19.609,-19.609,0.001,0.0031000000000000003,-0.0076,0.011,-0.045,-0.097
1701528094.069,19.609,19.609,-19.609,-0.0002,0.0009000000000000001,0.0053,0.023,-0.044,-0.099
1701528094.109,19.609,19.609,-19.609,-0.0006000000000000001,0.0027,-0.0034000000000000002,-0.003,-0.063,-0.095
1701528094.149,19.609,19.609,-19.609,-0.0013000000000000002,0.0028,-0.0044,-0.013000000000000001,-0.053,-0.099
1701528094.189,19.609,19.609,-19.609,0.0004,0.0018000000000000002,-0.0085,-0.012,-0.052000000000000005,-0.10300000000000001
1701528094.2289999,19.609,19.609,-19.609,0.00030000000000000003,0.0,0.0028,-0.009000000000000001,-0.045,-0.098
1701528094.269,19.609,19.609,-19.609,0.0023,0.0014,-0.0005,-0.023,-0.043000000000000003,-0.096
1701528094.309,19.609,19.609,-19.609,0.0001,0.0037,-0.0035,-0.005,-0.056,-0.1
1701528094.349,19.609,19.609,-19.609,0.002,0.0015,0.0022,-0.005,-0.009000000000000001,-0.10200000000000001
1701528094.389,19.609,19.609,-19.609,0.0,0.0018000000000000002,-0.0015,0.012,-0.046,-0.1
1701528094.429,19.609,19.609,-19.609,0.0006000000000000001,0.0021000000000000003,0.006200000000000001,-0.012,-0.052000000000000005,-0.098
1701528094.4689999,19.609,19.609,-19.609,0.0025,0.0034000000000000002,0.0025,-0.014,-0.048,-0.10200000000000001
1701528094.509,19.609,19.609,-19.609,0.0018000000000000002,0.0001,-0.0051,-0.012,-0.043000000000000003,-0.105
1701528094.549,19.609,19.609,-19.609,0.0012000000000000001,0.0018000000000000002,-0.0036000000000000003,-0.015,-0.045,-0.105
1701528094.589,19.609,19.609,-19.609,-0.0005,0.003,-0.0028,-0.007,-0.021,-0.108
1701528094.629,19.609,19.609,-19.609,-0.0018000000000000002,0.0032,0.0024000000000000002,-0.016,-0.044,-0.11800000000000001
1701528094.669,19.609,19.609,-19.609,0.001,0.0008,0.0009000000000000001,-0.003,-0.05,-0.117
1701528094.7089999,19.609,19.609,-19.609,0.0025,-0.0006000000000000001,-0.0041,-0.003,-0.054,-0.101
1701528094.749,19.609,19.609,-19.609,0.0007,0.004200000000000001,-0.0039000000000000003,-0.012,-0.044,-0.10200000000000001
1701528094.789,19.609,19.609,-19.609,0.002,0.0053,-0.0019,-0.015,-0.038,-0.109
1701528094.829,19.609,19.609,-19.609,-0.00030000000000000003,0.0026000000000000003,-0.0036000000000000003,-0.008,-0.042,-0.10200000000000001
1701528094.869,19.609,19.609,-19.609,-0.0008,0.0023,0.0036000000000000003,-0.014,-0.039,-0.10200000000000001
1701528094.909,19.609,19.609,-19.609,0.00030000000000000003,0.0036000000000000003,-0.0027,-0.018000000000000002,-0.031,-0.106
1701528094.949,19.609,19.609,-19.609,0.0018000000000000002,0.0004,-0.0006000000000000001,-0.017,-0.024,-0.106
1701528094.989,19.609,19.609,-19.609,0.002,0.0015,0.009300000000000001,-0.009000000000000001,-0.022,-0.094
1701528095.029,19.609,19.609,-19.609,0.0015,0.0036000000000000003,-0.0058000000000000005,-0.004,-0.027,-0.099
1701528095.069,19.609,19.609,-19.609,0.0006000000000000001,0.0024000000000000002,-0.0066,-0.012,-0.019,-0.094
1701528095.109,19.609,19.609,-19.609,-0.0001,0.0056,-0.0005,-0.004,-0.021,-0.092
1701528095.149,19.609,19.609,-19.609,0.0005,0.0033,-0.0018000000000000002,-0.009000000000000001,-0.026000000000000002,-0.096
1701528095.189,19.609,19.609,-19.609,0.004200000000000001,0.002,-0.0018000000000000002,-0.004,-0.033,-0.1
1701528095.229,19.609,19.609,-19.609,0.0021000000000000003,0.0018000000000000002,0.0179,-0.005,-0.036000000000000004,-0.111
1701528095.269,19.609,19.609,-19.609,0.0005,0.002,0.0086,-0.006,-0.036000000000000004,-0.10200000000000001
1701528095.309,19.609,19.609,-19.609,0.002,0.0026000000000000003,0.020200000000000003,-0.002,-0.044,-0.105
1701528095.349,19.609,19.609,-19.609,-0.0011,0.0026000000000000003,-0.016900000000000002,-0.008,-0.034,-0.10300000000000001
1701528095.389,19.609,19.609,-19.609,-0.0004,0.0027,-0.008700000000000001,-0.007,-0.04,-0.106
1701528095.429,19.609,19.609,-19.609,0.0019,0.0025,0.0061,-0.004,-0.035,-0.1
1701528095.469,19.609,19.609,-19.609,0.0008,0.002,-0.0054,0.0,-0.04,-0.1
1701528095.509,19.609,19.609,-19.609,0.002,0.0017000000000000001,0.0004,-0.012,-0.046,-0.10300000000000001
1701528095.549,19.609,19.609,-19.609,-0.0026000000000000003,0.0035,0.0016,0.009000000000000001,-0.043000000000000003,-0.105
1701528095.589,19.609,19.609,-19.609,0.001,0.0026000000000000003,-0.0008,0.003,-0.053,-0.10400000000000001
1701528095.629,19.609,19.609,-19.609,0.0,0.0029000000000000002,-0.01,-0.006,-0.052000000000000005,-0.111
1701528095.669,19.609,19.609,-19.609,0.0015,0.0005,0.0122,-0.01,-0.053,-0.10300000000000001
1701528095.709,19.609,19.609,-19.609,0.0018000000000000002,0.0002,-0.0036000000000000003,-0.025,-0.062,-0.10200000000000001
1701528095.749,19.609,19.609,-19.609,0.0014,0.0005,0.0026000000000000003,-0.012,-0.056,-0.10300000000000001
1701528095.789,19.609,19.609,-19.609,0.0018000000000000002,0.0014,-0.0014,-0.01,-0.052000000000000005,-0.11800000000000001
1701528095.829,19.609,19.609,-19.609,0.0018000000000000002,0.0023,-0.0034000000000000002,-0.004,-0.052000000000000005,-0.109
1701528095.869,19.609,19.609,-19.609,0.0022,0.002,-0.004,-0.008,-0.048,-0.10200000000000001
1701528095.909,19.609,19.609,-19.609,0.0016,0.0032,-0.0015,-0.01,-0.034,-0.113
1701528095.949,19.609,19.609,-19.609,0.0035,0.0032,-0.0046,0.017,-0.047,-0.107
1701528095.9889998,19.609,19.609,-19.609,0.0004,0.0034000000000000002,0.00030000000000000003,-0.001,-0.043000000000000003,-0.107
1701528096.029,19.609,19.609,-19.609,0.0014,0.0027,0.0022,0.006,-0.047,-0.109
1701528096.069,19.609,19.609,-19.609,0.0064,0.004,0.0032,-0.002,-0.031,-0.107
1701528096.109,19.609,19.609,-19.609,-0.0021000000000000003,0.0035,0.0001,-0.006,-0.042,-0.107
1701528096.149,19.609,19.609,-19.609,-0.0004,0.0027,0.0015,-0.049,-0.045,-0.10400000000000001
1701528096.189,19.609,19.609,-19.609,0.0037,0.0029000000000000002,-0.0103,-0.012,-0.042,-0.096
1701528096.2289999,19.609,19.609,-19.609,-0.0001,0.0027,0.0048000000000000004,0.018000000000000002,-0.037,-0.113
1701528096.269,19.609,19.609,-19.609,0.0037,0.0043,0.0081,-0.011,-0.039,-0.105
1701528096.309,19.609,19.609,-19.609,-0.0002,0.0018000000000000002,-0.0089,0.0,-0.039,-0.1
1701528096.349,19.609,19.609,-19.609,0.0034000000000000002,0.0023,0.002,-0.01,-0.035,-0.11
1701528096.389,19.609,19.609,-19.609,-0.0001,0.0012000000000000001,-0.002,0.001,-0.033,-0.10200000000000001
1701528096.429,19.609,19.609,-19.609,0.0005,0.0012000000000000001,0.0034000000000000002,0.0,-0.026000000000000002,-0.097
1701528096.4689999,19.609,19.609,-19.609,0.0013000000000000002,0.0043,-0.0046,-0.006,-0.025,-0.095
1701528096.509,19.609,19.609,-19.609,0.0006000000000000001,0.0015,-0.0046,-0.005,-0.029,-0.089
1701528096.549,19.609,19.609,-19.609,0.0015,0.003,-0.0015,-0.001,-0.033,-0.089
1701528096.589,19.609,19.609,-19.609,-0.0001,0.002,-0.0035,-0.008,-0.036000000000000004,-0.095
1701528096.629,19.609,19.609,-19.609,0.0,0.0028,-0.0021000000000000003,-0.003,-0.041,-0.095
1701528096.669,19.609,19.609,-19.609,-0.0004,0.0009000000000000001,-0.004200000000000001,0.0,-0.04,-0.09
1701528096.7089999,19.609,19.609,-19.609,0.0017000000000000001,0.0017000000000000001,0.0035,-0.001,-0.046,-0.08600000000000001
1701528096.749,19.609,19.609,-19.609,-0.0009000000000000001,0.002,-0.0004,-0.004,-0.041,-0.098
1701528096.789,19.609,19.609,-19.609,0.0,0.0034000000000000002,-0.0064,0.0,-0.042,-0.091
1701528096.829,19.609,19.609,-19.609,0.0023,0.0026000000000000003,0.0049,0.0,-0.043000000000000003,-0.09
1701528096.869,19.609,19.609,-19.609,-0.0001,0.003,-0.005,0.0,-0.051000000000000004,-0.096
1701528096.909,19.609,19.609,-19.609,0.0002,0.0017000000000000001,0.004,-0.006,-0.038,-0.098
1701528096.949,19.609,19.609,-19.609,0.0012000000000000001,0.0015,-0.0026000000000000003,-0.005,-0.04,-0.093
1701528096.989,19.609,19.609,-19.609,-0.0016,0.002,0.0,-0.004,-0.038,-0.101
1701528097.029,19.609,19.609,-19.609,0.0029000000000000002,0.0045000000000000005,-0.0028,-0.008,-0.029,-0.10200000000000001
1701528097.069,19.609,19.609,-19.609,0.0006000000000000001,0.0013000000000000002,-0.0165,-0.008,-0.036000000000000004,-0.10300000000000001
1701528097.109,19.609,19.609,-19.609,0.0,0.0032,0.0241,-0.005,-0.041,-0.106
1701528097.149,19.609,19.609,-19.609,-0.0023,0.003,-0.0078000000000000005,-0.01,-0.045,-0.099
1701528097.189,19.609,19.609,-19.609,-0.0002,0.0022,0.006900000000000001,-0.012,-0.042,-0.114
1701528097.229,19.609,19.609,-19.609,0.0018000000000000002,0.0013000000000000002,-0.007500000000000001,0.0,-0.043000000000000003,-0.10200000000000001
1701528097.269,19.609,19.609,-19.609,0.0031000000000000003,0.0017000000000000001,0.001,-0.003,-0.037,-0.10400000000000001
1701528097.309,19.609,19.609,-19.609,0.0002,0.0029000000000000002,-0.003,-0.007,-0.036000000000000004,-0.10300000000000001
1701528097.349,19.609,19.609,-19.609,0.0021000000000000003,0.0039000000000000003,-0.0015,-0.004,-0.038,-0.10300000000000001
1701528097.389,19.609,19.609,-19.609,-0.0004,0.0,-0.0057,-0.008,-0.038,-0.106
1701528097.429,19.609,19.609,-19.609,0.0011,0.0013000000000000002,-0.0025,-0.006,-0.038,-0.114
1701528097.469,19.609,19.609,-19.609,-0.0021000000000000003,0.0012000000000000001,0.0081,-0.005,-0.036000000000000004,-0.109
1701528097.509,19.609,19.609,-19.609,0.0014,0.0038,-0.001,-0.006,-0.041,-0.098
1701528097.549,19.609,19.609,-19.609,0.0017000000000000001,0.0026000000000000003,-0.0068000000000000005,-0.006,-0.034,-0.098
1701528097.589,19.609,19.609,-19.609,0.00030000000000000003,0.0013000000000000002,0.0086,0.014,-0.029,-0.101
1701528097.629,19.609,19.609,-19.609,0.001,0.0009000000000000001,0.0005,-0.001,-0.029,-0.105
1701528097.669,19.609,19.609,-19.609,0.0026000000000000003,0.0035,-0.006500000000000001,-0.005,-0.038,-0.10200000000000001
1701528097.709,19.609,19.609,-19.609,0.0001,0.0021000000000000003,-0.0055000000000000005,-0.001,-0.038,-0.10300000000000001
1701528097.749,19.609,19.609,-19.609,0.0005,0.004200000000000001,-0.0008,-0.001,-0.038,-0.10300000000000001
1701528097.789,19.609,19.609,-19.609,0.0011,0.0024000000000000002,0.0018000000000000002,-0.032,-0.034,-0.098
1701528097.829,19.609,19.609,-19.609,0.001,0.0021000000000000003,0.003,-0.005,-0.039,-0.1
1701528097.869,19.609,19.609,-19.609,0.0012000000000000001,0.0032,0.0022,-0.012,-0.039,-0.098
1701528097.909,19.609,19.609,-19.609,0.0024000000000000002,0.0012000000000000001,-0.0051,0.003,-0.044,-0.098
1701528097.949,19.609,19.609,-19.609,0.0009000000000000001,0.0038,-0.0177,-0.005,-0.045,-0.101
1701528097.9889998,19.609,19.609,-19.609,-0.0015,0.0051,0.0007,0.011,-0.038,-0.105
1701528098.029,19.609,19.609,-19.609,0.0017000000000000001,0.0032,0.0026000000000000003,-0.007,-0.037,-0.098
1701528098.069,19.609,19.609,-19.609,0.0028,0.0023,-0.0017000000000000001,0.006,-0.048,-0.114
1701528098.109,19.609,19.609,-19.609,0.0013000000000000002,0.0037,-0.0055000000000000005,0.002,-0.054,-0.111
1701528098.149,19.609,19.609,-19.609,0.0015,0.0025,-0.0045000000000000005,0.002,-0.047,-0.10200000000000001
1701528098.189,19.609,19.609,-19.609,0.0014,0.0012000000000000001,-0.004200000000000001,-0.013000000000000001,-0.047,-0.105
1701528098.2289999,19.609,19.609,-19.609,0.0026000000000000003,0.0018000000000000002,-0.0019,-0.016,-0.046,-0.105
1701528098.269,19.609,19.609,-19.609,-0.0009000000000000001,-0.0007,0.0031000000000000003,-0.011,-0.031,-0.1
1701528098.309,19.609,19.609,-19.609,0.0025,0.0021000000000000003,0.0012000000000000001,-0.007,-0.049,-0.105
1701528098.349,19.609,19.609,-19.609,0.0022,0.001,-0.0022,-0.016,-0.058,-0.111
1701528098.389,19.609,19.609,-19.609,0.0018000000000000002,0.004,0.006,-0.004,-0.054,-0.1
1701528098.429,19.609,19.609,-19.609,0.0015,0.0031000000000000003,-0.0073,-0.007,-0.042,-0.109
1701528098.4689999,19.609,19.609,-19.609,0.0013000000000000002,0.0034000000000000002,0.0007,-0.006,-0.041,-0.112
1701528098.509,19.609,19.609,-19.609,0.002,0.0026000000000000003,0.002,0.003,-0.042,-0.10400000000000001
1701528098.549,19.609,19.609,-19.609,0.0011,0.0025,0.0007,-0.001,-0.047,-0.106
1701528098.589,19.609,19.609,-19.609,0.00030000000000000003,0.001,-0.0027,-0.001,-0.055,-0.112
1701528098.629,19.609,19.609,-19.609,0.004200000000000001,0.0025,0.0001,-0.012,-0.047,-0.109
1701528098.669,19.609,19.609,-19.609,0.0,0.0,-0.0022,-0.004,-0.041,-0.10200000000000001
1701528098.7089999,19.609,19.609,-19.609,0.0016,0.0027,-0.0015,-0.008,-0.034,-0.096
1701528098.749,19.609,19.609,-19.609,0.0014,0.0053,-0.0086,-0.009000000000000001,-0.028,-0.098
1701528098.789,19.609,19.609,-19.609,0.0017000000000000001,0.0021000000000000003,0.0009000000000000001,-0.011,-0.022,-0.096
1701528098.829,19.609,19.609,-19.609,0.0008,0.0018000000000000002,0.0026000000000000003,-0.01,-0.022,-0.098
1701528098.869,19.609,19.609,-19.609,-0.0005,0.0016,-0.0054,-0.002,-0.026000000000000002,-0.1
1701528098.909,19.609,19.609,-19.609,-0.001,0.0034000000000000002,-0.021400000000000002,-0.007,-0.032,-0.099
1701528098.949,19.609,19.609,-19.609,0.0025,0.001,-0.0164,-0.002,-0.043000000000000003,-0.092
1701528098.989,19.609,19.609,-19.609,-0.0009000000000000001,0.0017000000000000001,0.0043,-0.009000000000000001,-0.037,-0.10200000000000001
1701528099.029,19.609,19.609,-19.609,-0.0006000000000000001,0.0007,0.0002,-0.011,-0.042,-0.097
1701528099.069,19.609,19.609,-19.609,0.0022,0.0029000000000000002,-0.00030000000000000003,-0.007,-0.048,-0.094
1701528099.109,19.609,19.609,-19.609,-0.0001,0.0019,-0.0007,-0.009000000000000001,-0.052000000000000005,-0.098
1701528099.149,19.609,19.609,-19.609,0.0017000000000000001,0.0021000000000000003,-0.001,0.0,-0.05,-0.101
1701528099.189,19.609,19.609,-19.609,0.0015,0.0023,-0.0013000000000000002,-0.009000000000000001,-0.052000000000000005,-0.1
1701528099.229,19.609,19.609,-19.609,-0.0009000000000000001,0.0016,0.0035,-0.004,-0.047,-0.09
1701528099.269,19.609,19.609,-19.609,-0.0006000000000000001,0.0021000000000000003,0.0017000000000000001,0.0,-0.048,-0.089
1701528099.309,19.609,19.609,-19.609,-0.0014,0.0012000000000000001,0.00030000000000000003,0.0,-0.045,-0.10300000000000001
1701528099.349,19.609,19.609,-19.609,0.0004,0.0,0.0007,0.002,-0.051000000000000004,-0.095
1701528099.389,19.609,19.609,-19.609,-0.00030000000000000003,0.0014,-0.0036000000000000003,-0.003,-0.042,-0.095
1701528099.429,19.609,19.609,-19.609,0.0005,0.0027,0.0125,-0.012,-0.042,-0.099
1701528099.469,19.609,19.609,-19.609,0.0024000000000000002,0.0021000000000000003,-0.0051,-0.006,-0.055,-0.101
1701528099.509,19.609,19.609,-19.609,0.0015,0.0018000000000000002,-0.0039000000000000003,-0.009000000000000001,-0.06,-0.101
1701528099.549,19.609,19.609,-19.609,-0.001,0.0037,-0.0071,-0.008,-0.05,-0.10200000000000001
1701528099.589,19.609,19.609,-19.609,0.0001,0.0026000000000000003,0.0024000000000000002,-0.01,-0.046,-0.10400000000000001
1701528099.629,19.609,19.609,-19.609,0.0014,0.0012000000000000001,-0.0083,-0.019,-0.043000000000000003,-0.1
1701528099.669,19.609,19.609,-19.609,0.0011,0.0043,-0.0018000000000000002,-0.001,-0.044,-0.101
1701528099.709,19.609,19.609,-19.609,0.0004,0.0025,0.0049,-0.007,-0.025,-0.099
1701528099.749,19.609,19.609,-19.609,0.0031000000000000003,0.0028,-0.0045000000000000005,-0.009000000000000001,-0.055,-0.1
1701528099.789,19.609,19.609,-19.609,0.0027,0.002,0.0041,0.003,-0.046,-0.105
1701528099.829,19.609,19.609,-19.609,0.0008,0.0022,-0.0045000000000000005,-0.003,-0.063,-0.093
1701528099.869,19.609,19.609,-19.609,0.0012000000000000001,0.0039000000000000003,0.0015,0.003,-0.046,-0.098
1701528099.909,19.609,19.609,-19.609,0.001,0.001,-0.001,-0.008,-0.043000000000000003,-0.092
1701528099.949,19.609,19.609,-19.609,0.002,0.001,0.0036000000000000003,-0.009000000000000001,-0.056,-0.095
1701528099.9889998,19.609,19.609,-19.609,-0.0017000000000000001,0.0033,-0.0045000000000000005,-0.003,-0.049,-0.1
1701528100.029,19.609,19.609,-19.609,0.0002,0.0021000000000000003,0.0059,0.0,-0.04,-0.10400000000000001
1701528100.069,19.609,19.609,-19.609,0.004,0.0015,-0.0063,-0.005,-0.036000000000000004,-0.1
1701528100.109,19.609,19.609,-19.609,0.00030000000000000003,0.0023,-0.0046,-0.003,-0.05,-0.099
1701528100.149,19.609,19.609,-19.609,0.0009000000000000001,0.0012000000000000001,0.0035,-0.006,-0.036000000000000004,-0.099
1701528100.189,19.609,19.609,-19.609,0.001,0.0027,0.0,0.0,-0.038,-0.105
1701528100.2289999,19.609,19.609,-19.609,0.0012000000000000001,0.0036000000000000003,-0.0011,-0.001,-0.037,-0.094
1701528100.269,19.609,19.609,-19.609,0.0022,0.0041,0.0025,-0.001,-0.044,-0.097
1701528100.309,19.609,19.609,-19.609,0.0026000000000000003,0.0034000000000000002,-0.005,-0.002,-0.047,-0.099
1701528100.349,19.609,19.609,-19.609,0.0024000000000000002,0.002,0.0036000000000000003,-0.002,-0.045,-0.10300000000000001
1701528100.389,19.609,19.609,-19.609,0.001,0.0021000000000000003,0.0044,-0.006,-0.05,-0.101
1701528100.429,19.609,19.609,-19.609,0.0028,0.0021000000000000003,-0.0034000000000000002,-0.004,-0.044,-0.099
1701528100.4689999,19.609,19.609,-19.609,0.0008,0.0012000000000000001,-0.0173,-0.006,-0.053,-0.097
1701528100.509,19.609,19.609,-19.609,0.0017000000000000001,0.0017000000000000001,0.0078000000000000005,0.0,-0.05,-0.107
1701528100.549,19.609,19.609,-19.609,-0.0004,0.0036000000000000003,-0.0063,0.002,-0.053,-0.105
1701528100.589,19.609,19.609,-19.609,0.0012000000000000001,0.0015,0.002,0.0,-0.046,-0.11
1701528100.629,19.609,19.609,-19.609,0.0018000000000000002,0.0004,0.0034000000000000002,-0.003,-0.055,-0.111
1701528100.669,19.609,19.609,-19.609,0.0016,0.0007,-0.008400000000000001,0.007,-0.049,-0.108
1701528100.7089999,19.609,19.609,-19.609,0.0043,0.0023,-0.0296,0.0,-0.043000000000000003,-0.1
1701528100.749,19.609,19.609,-19.609,0.0017000000000000001,0.0045000000000000005,-0.0006000000000000001,-0.009000000000000001,-0.04,-0.105
1701528100.789,19.609,19.609,-19.609,0.0016,0.0017000000000000001,0.0046,-0.009000000000000001,-0.042,-0.1
1701528100.829,19.609,19.609,-19.609,0.0006000000000000001,0.0028,-0.006500000000000001,-0.009000000000000001,-0.048,-0.105
1701528100.869,19.609,19.609,-19.609,0.0007,0.002,0.0082,-0.001,-0.038,-0.112
1701528100.909,19.609,19.609,-19.609,0.0007,0.0005,0.004200000000000001,-0.004,-0.047,-0.10200000000000001
1701528100.949,19.609,19.609,-19.609,0.0005,0.0024000000000000002,-0.0057,-0.004,-0.038,-0.105
1701528100.989,19.609,19.609,-19.609,0.0,0.0025,0.0046,-0.005,-0.05,-0.101
1701528101.029,19.609,19.609,-19.609,-0.0004,0.0045000000000000005,0.0004,-0.007,-0.038,-0.109
1701528101.069,19.609,19.609,-19.609,0.0006000000000000001,0.0029000000000000002,0.0015,-0.005,-0.028,-0.099
1701528101.109,19.609,19.609,-19.609,0.0013000000000000002,0.0009000000000000001,-0.0039000000000000003,0.005,-0.036000000000000004,-0.109
1701528101.149,19.609,19.609,-19.609,0.0022,0.0028,-0.0064,-0.002,-0.04,-0.10300000000000001
1701528101.189,19.609,19.609,-19.609,0.00030000000000000003,0.0014,0.0034000000000000002,-0.004,-0.032,-0.10200000000000001
1701528101.229,19.609,19.609,-19.609,0.0017000000000000001,0.0025,-0.0071,-0.006,-0.031,-0.095
1701528101.269,19.609,19.609,-19.609,0.002,0.0027,-0.004200000000000001,-0.008,-0.032,-0.1
1701528101.309,19.609,19.609,-19.609,0.0005,0.0023,0.0015,-0.009000000000000001,-0.007,-0.088
1701528101.349,19.609,19.609,-19.609,-0.0006000000000000001,0.0037,0.0053,-0.008,-0.03,-0.097
1701528101.389,19.609,19.609,-19.609,0.0006000000000000001,0.0,-0.0115,0.0,-0.035,-0.098
1701528101.429,19.609,19.609,-19.609,0.0021000000000000003,0.0005,0.0054,-0.002,-0.034,-0.096
1701528101.469,19.609,19.609,-19.609,0.0019,0.0007,0.0012000000000000001,-0.008,-0.018000000000000002,-0.098
1701528101.509,19.609,19.609,-19.609,0.0004,0.0029000000000000002,0.0002,0.001,-0.042,-0.099
1701528101.549,19.609,19.609,-19.609,0.002,0.0031000000000000003,-0.0032,-0.002,-0.028,-0.096
1701528101.589,19.609,19.609,-19.609,0.0014,0.0013000000000000002,-0.0024000000000000002,-0.005,-0.027,-0.096
1701528101.629,19.609,19.609,-19.609,0.00030000000000000003,0.0021000000000000003,-0.0078000000000000005,-0.003,-0.041,-0.095
1701528101.669,19.609,19.609,-19.609,-0.0013000000000000002,0.0006000000000000001,0.001,0.002,-0.045,-0.10400000000000001
1701528101.709,19.609,19.609,-19.609,-0.0001,0.0018000000000000002,-0.0067,0.0,-0.049,-0.109
1701528101.749,19.609,19.609,-19.609,-0.0021000000000000003,0.0025,-0.0013000000000000002,-0.009000000000000001,-0.048,-0.107
1701528101.789,19.609,19.609,-19.609,0.0005,0.004200000000000001,0.0021000000000000003,-0.007,-0.034,-0.093
1701528101.829,19.609,19.609,-19.609,0.0012000000000000001,0.0047,0.0001,-0.007,-0.041,-0.092
1701528101.869,19.609,19.609,-19.609,0.0015,0.0038,0.0016,-0.007,-0.032,-0.107
1701528101.909,19.609,19.609,-19.609,-0.0002,0.0038,-0.0068000000000000005,-0.001,-0.032,-0.107
1701528101.949,19.609,19.609,-19.609,0.0024000000000000002,0.0034000000000000002,0.005200000000000001,0.001,-0.045,-0.1
1701528101.9889998,19.609,19.609,-19.609,-0.001,0.0036000000000000003,0.0018000000000000002,0.0,-0.045,-0.107
1701528102.029,19.609,19.609,-19.609,0.0031000000000000003,0.0032,-0.005,0.004,-0.043000000000000003,-0.10400000000000001
1701528102.069,19.609,19.609,-19.609,0.0014,0.0013000000000000002,-0.0031000000000000003,0.009000000000000001,-0.049,-0.088
1701528102.109,19.609,19.609,-19.609,0.0018000000000000002,0.0026000000000000003,-0.008400000000000001,0.014,-0.05,-0.079
1701528102.149,19.609,19.609,-19.609,0.0031000000000000003,0.0018000000000000002,-0.00030000000000000003,0.002,-0.057,-0.054
1701528102.189,19.609,19.609,-19.609,-0.0001,0.0024000000000000002,-0.0027,-0.004,-0.049,-0.06
1701528102.2289999,19.609,19.609,-19.609,0.0009000000000000001,0.00030000000000000003,0.0047,-0.014,-0.035,-0.10200000000000001
1701528102.269,19.609,19.609,-19.609,0.0,0.005,0.0032,-0.017,-0.037,-0.11
1701528102.309,19.609,19.609,-19.609,0.0014,0.0012000000000000001,0.0026000000000000003,-0.018000000000000002,-0.035,-0.097
1701528102.349,19.609,19.609,-19.609,0.0016,0.0017000000000000001,-0.005,-0.007,-0.04,-0.1
1701528102.389,19.609,19.609,-19.609,0.0009000000000000001,0.0004,-0.0011,-0.011,-0.036000000000000004,-0.106
1701528102.429,19.609,19.609,-19.609,0.0001,0.0024000000000000002,-0.0061,-0.013000000000000001,-0.026000000000000002,-0.112
1701528102.4689999,19.609,19.609,-19.609,0.00030000000000000003,0.0006000000000000001,-0.0006000000000000001,-0.015,-0.04,-0.113
1701528102.509,19.609,19.609,-19.609,-0.0002,0.0015,-0.005200000000000001,-0.003,-0.047,-0.109
1701528102.549,19.609,19.609,-19.609,-0.0009000000000000001,0.0031000000000000003,0.0175,0.003,-0.05,-0.117
1701528102.589,19.609,19.609,-19.609,-0.0022,0.0007,0.0044,0.006,-0.055,-0.11800000000000001
1701528102.629,19.609,19.609,-19.609,0.00030000000000000003,0.0017000000000000001,-0.00030000000000000003,0.005,-0.059000000000000004,-0.111
1701528102.669,19.609,19.609,-19.609,0.0014,0.002,-0.0119,-0.005,-0.06,-0.107
1701528102.7089999,19.609,19.609,-19.609,0.0023,0.0032,0.007,0.002,-0.047,-0.111
1701528102.749,19.609,19.609,-19.609,0.002,0.0029000000000000002,-0.0041,-0.004,-0.032,-0.105
1701528102.789,19.609,19.609,-19.609,0.0021000000000000003,0.0012000000000000001,-0.0037,-0.011,-0.026000000000000002,-0.10200000000000001
1701528102.829,19.609,19.609,-19.609,0.0012000000000000001,0.0029000000000000002,-0.0016,-0.013000000000000001,-0.024,-0.101
1701528102.869,19.609,19.609,-19.609,0.0004,0.0036000000000000003,-0.004200000000000001,-0.012,-0.028,-0.11
1701528102.909,19.609,19.609,-19.609,0.0025,0.0013000000000000002,-0.0021000000000000003,-0.01,-0.023,-0.108
1701528102.949,19.609,19.609,-19.609,0.005200000000000001,0.0021000000000000003,-0.0081,-0.015,-0.007,-0.123
1701528102.989,19.609,19.609,-19.609,-0.0001,0.0032,0.0098,-0.028,-0.02,-0.135
1701528103.029,19.609,19.609,-19.609,-0.0009000000000000001,0.0,-0.0048000000000000004,-0.02,-0.028,-0.13
1701528103.069,19.609,19.609,-19.609,0.0011,0.0014,0.0097,-0.007,-0.038,-0.107
1701528103.109,19.609,19.609,-19.609,0.0026000000000000003,0.0013000000000000002,-0.0036000000000000003,0.009000000000000001,-0.042,-0.105
1701528103.149,19.609,19.609,-19.609,0.0019,0.0032,-0.0079,0.009000000000000001,-0.018000000000000002,-0.114
1701528103.189,19.609,19.609,-19.609,-0.0001,0.0032,-0.0026000000000000003,0.027,-0.041,-0.098
1701528103.229,19.609,19.609,-19.609,0.0025,0.0026000000000000003,-0.0018000000000000002,0.02,-0.026000000000000002,-0.092
1701528103.269,19.609,19.609,-19.609,-0.0001,0.0022,0.0032,-0.001,-0.061,-0.096
1701528103.309,19.609,19.609,-19.609,0.0013000000000000002,0.0028,-0.0014,0.002,-0.041,-0.097
1701528103.349,19.609,19.609,-19.609,0.003,0.003,-0.00030000000000000003,-0.001,-0.049,-0.105
1701528103.389,19.609,19.609,-19.609,-0.0004,0.0026000000000000003,0.0,-0.004,-0.07,-0.1
1701528103.429,19.609,19.609,-19.609,0.0002,0.0021000000000000003,-0.0045000000000000005,-0.012,-0.04,-0.098
1701528103.469,19.609,19.609,-19.609,0.002,0.0031000000000000003,-0.0235,-0.01,-0.014,-0.08700000000000001
1701528103.509,19.609,19.609,-19.609,0.0011,0.0017000000000000001,0.030500000000000003,-0.001,-0.038,-0.094
1701528103.549,19.609,19.609,-19.609,0.0009000000000000001,0.0036000000000000003,-0.0097,-0.001,-0.039,-0.101
1701528103.589,19.609,19.609,-19.609,0.0027,0.004,0.0044,0.0,-0.05,-0.097
1701528103.629,19.609,19.609,-19.609,-0.0009000000000000001,0.0029000000000000002,-0.0016,0.004,-0.047,-0.097
1701528103.669,19.609,19.609,-19.609,0.0021000000000000003,0.0009000000000000001,-0.008,0.003,-0.052000000000000005,-0.099
1701528103.709,19.609,19.609,-19.609,-0.0001,0.0032,-0.0057,0.0,-0.057,-0.098
1701528103.749,19.609,19.609,-19.609,0.0012000000000000001,0.0018000000000000002,0.0004,-0.014,-0.049,-0.101
1701528103.789,19.609,19.609,-19.609,0.0028,0.0001,-0.0047,-0.009000000000000001,-0.047,-0.10200000000000001
1701528103.829,19.609,19.609,-19.609,-0.0006000000000000001,0.0044,0.0046,-0.013000000000000001,-0.041,-0.101
1701528103.869,19.609,19.609,-19.609,0.0001,0.0023,-0.0026000000000000003,-0.009000000000000001,-0.036000000000000004,-0.101
1701528103.909,19.609,19.609,-19.609,0.0015,0.0019,-0.0026000000000000003,-0.003,-0.046,-0.099
1701528103.949,19.609,19.609,-19.609,0.0014,0.0013000000000000002,-0.0031000000000000003,-0.005,-0.045,-0.11
1701528103.9889998,19.609,19.609,-19.609,0.0011,0.0013000000000000002,-0.0018000000000000002,0.0,-0.044,-0.107
1701528104.029,19.609,19.609,-19.609,0.0012000000000000001,0.005,-0.0079,0.0,-0.056,-0.10200000000000001
1701528104.069,19.609,19.609,-19.609,-0.00030000000000000003,0.0015,0.0094,-0.006,-0.037,-0.11
1701528104.109,19.609,19.609,-19.609,0.0005,0.0034000000000000002,-0.0099,-0.01,-0.034,-0.105
1701528104.149,19.609,19.609,-19.609,0.0008,0.0005,-0.0027,-0.013000000000000001,-0.036000000000000004,-0.097
1701528104.189,19.609,19.609,-19.609,0.0023,0.0007,-0.0028,-0.011,-0.037,-0.097
1701528104.2289999,19.609,19.609,-19.609,0.0055000000000000005,0.0033,0.0006000000000000001,-0.013000000000000001,-0.026000000000000002,-0.107
1701528104.269,19.609,19.609,-19.609,-0.0022,0.00030000000000000003,0.0106,-0.008,-0.032,-0.105
1701528104.309,19.609,19.609,-19.609,0.0026000000000000003,0.0028,-0.0009000000000000001,-0.007,-0.037,-0.08600000000000001
1701528104.349,19.609,19.609,-19.609,-0.0014,0.004200000000000001,-0.0095,-0.003,-0.029,-0.08700000000000001
1701528104.389,19.609,19.609,-19.609,0.002,0.004,0.0097,-0.006,-0.034,-0.10300000000000001
1701528104.429,19.609,19.609,-19.609,0.0025,0.0032,0.001,0.0,-0.04,-0.101
1701528104.4689999,19.609,19.609,-19.609,0.0007,0.0022,0.0014,0.005,-0.039,-0.099
1701528104.509,19.609,19.609,-19.609,0.0,0.0025,-0.0018000000000000002,0.004,-0.041,-0.112
1701528104.549,19.609,19.609,-19.609,0.0035,0.0039000000000000003,-0.0009000000000000001,-0.006,-0.036000000000000004,-0.105
1701528104.589,19.609,19.609,-19.609,0.0024000000000000002,0.0016,-0.0032,-0.007,-0.042,-0.107
1701528104.629,19.609,19.609,-19.609,0.0009000000000000001,0.0021000000000000003,-0.003,-0.004,-0.046,-0.109
1701528104.669,19.609,19.609,-19.609,0.003,0.0045000000000000005,0.004,-0.003,-0.043000000000000003,-0.099
1701528104.7089999,19.609,19.609,-19.609,0.0002,0.0026000000000000003,0.0045000000000000005,0.002,-0.038,-0.1
1701528104.749,19.609,19.609,-19.609,0.0021000000000000003,0.0028,-0.0045000000000000005,0.001,-0.024,-0.097
1701528104.789,19.609,19.609,-19.609,0.001,0.001,0.0043,-0.001,-0.034,-0.101
1701528104.829,19.609,19.609,-19.609,0.0023,0.0023,0.0009000000000000001,-0.029,-0.045,-0.10400000000000001
1701528104.869,19.609,19.609,-19.609,0.0017000000000000001,0.0021000000000000003,-0.004,-0.019,-0.054,-0.094
1701528104.909,19.609,19.609,-19.609,0.0005,0.0028,0.0036000000000000003,0.0,-0.045,-0.098
1701528104.949,19.609,19.609,-19.609,-0.0001,0.0021000000000000003,-0.0026000000000000003,-0.007,-0.048,-0.10300000000000001
1701528104.989,19.609,19.609,-19.609,0.0074,0.0029000000000000002,-0.0082,0.003,-0.069,-0.10200000000000001
1701528105.029,19.609,19.609,-19.609,0.0,0.0037,0.0076,-0.003,-0.062,-0.105
1701528105.069,19.609,19.609,-19.609,0.0017000000000000001,0.0028,-0.0108,-0.002,-0.054,-0.116
1701528105.109,19.609,19.609,-19.609,0.0011,0.0007,-0.013900000000000001,-0.01,-0.055,-0.114
1701528105.149,19.609,19.609,-19.609,0.001,0.0036000000000000003,0.007,0.0,-0.048,-0.101
1701528105.189,19.609,19.609,-19.609,0.0012000000000000001,0.0025,-0.0021000000000000003,-0.003,-0.047,-0.114
1701528105.229,19.609,19.609,-19.609,0.0015,0.0024000000000000002,-0.009000000000000001,0.0,-0.047,-0.105
1701528105.269,19.609,19.609,-19.609,0.0001,0.00030000000000000003,0.0013000000000000002,0.017,-0.044,-0.105
1701528105.309,19.609,19.609,-19.609,0.0028,0.0036000000000000003,-0.0031000000000000003,0.0,-0.051000000000000004,-0.106
1701528105.349,19.609,19.609,-19.609,0.0007,0.0032,0.0063,0.0,-0.056,-0.113
1701528105.389,19.609,19.609,-19.609,-0.0015,0.0015,-0.0146,-0.009000000000000001,-0.031,-0.10400000000000001
1701528105.429,19.609,19.609,-19.609,-0.0009000000000000001,0.002,0.0098,-0.009000000000000001,-0.028,-0.105
1701528105.469,19.609,19.609,-19.609,0.0019,0.0021000000000000003,0.008700000000000001,-0.01,-0.035,-0.10300000000000001
1701528105.509,19.609,19.609,-19.609,0.0024000000000000002,0.0012000000000000001,-0.0091,-0.031,-0.036000000000000004,-0.10300000000000001
1701528105.549,19.609,19.609,-19.609,0.0006000000000000001,0.0004,0.0057,-0.007,-0.037,-0.107
1701528105.589,19.609,19.609,-19.609,0.0012000000000000001,0.0017000000000000001,-0.0048000000000000004,-0.002,-0.027,-0.10400000000000001
1701528105.629,19.609,19.609,-19.609,0.0001,0.0026000000000000003,0.0002,-0.004,-0.034,-0.101
1701528105.669,19.609,19.609,-19.609,-0.0001,0.0015,-0.0039000000000000003,-0.005,-0.038,-0.10400000000000001
1701528105.709,19.609,19.609,-19.609,0.002,0.0023,-0.0025,0.004,-0.042,-0.10200000000000001
1701528105.749,19.609,19.609,-19.609,0.0026000000000000003,0.0025,0.0001,-0.007,-0.026000000000000002,-0.1
1701528105.789,19.609,19.609,-19.609,0.0008,0.0035,-0.0028,-0.009000000000000001,-0.031,-0.095
1701528105.829,19.609,19.609,-19.609,0.002,0.0026000000000000003,-0.0012000000000000001,0.003,-0.043000000000000003,-0.099
1701528105.869,19.609,19.609,-19.609,0.0051,0.004,0.0055000000000000005,-0.004,-0.037,-0.106
1701528105.909,19.609,19.609,-19.609,0.0018000000000000002,0.002,0.0017000000000000001,-0.005,-0.029,-0.10400000000000001
1701528105.949,19.609,19.609,-19.609,0.0027,0.0026000000000000003,-0.0004,-0.008,-0.03,-0.098
1701528105.9889998,19.609,19.609,-19.609,0.0006000000000000001,0.0015,-0.0006000000000000001,-0.007,-0.036000000000000004,-0.099
1701528106.029,19.609,19.609,-19.609,0.00030000000000000003,0.0023,-0.0022,-0.003,-0.03,-0.108
1701528106.069,19.609,19.609,-19.609,0.0032,0.0029000000000000002,-0.0073,-0.003,-0.03,-0.106
1701528106.109,19.609,19.609,-19.609,0.00030000000000000003,0.0034000000000000002,-0.001,0.0,-0.034,-0.093
1701528106.149,19.609,19.609,-19.609,0.0015,0.0039000000000000003,0.009000000000000001,-0.003,-0.035,-0.111
1701528106.189,19.609,19.609,-19.609,-0.0001,0.005200000000000001,-0.0267,-0.005,-0.036000000000000004,-0.109
1701528106.2289999,19.609,19.609,-19.609,0.0024000000000000002,0.0025,0.011600000000000001,-0.008,-0.04,-0.10300000000000001
1701528106.269,19.609,19.609,-19.609,0.0031000000000000003,0.0037,-0.004200000000000001,-0.002,-0.044,-0.101
1701528106.309,19.609,19.609,-19.609,0.0022,0.0025,-0.007,-0.012,-0.036000000000000004,-0.105
1701528106.349,19.609,19.609,-19.609,0.0007,0.0036000000000000003,0.0027,-0.004,-0.032,-0.108
1701528106.389,19.609,19.609,-19.609,-0.0005,0.0023,-0.0054,-0.012,-0.034,-0.10400000000000001
1701528106.429,19.609,19.609,-19.609,-0.0004,-0.0012000000000000001,-0.0021000000000000003,-0.003,-0.039,-0.10200000000000001
1701528106.4689999,19.609,19.609,-19.609,0.0015,0.002,0.0108,-0.007,-0.039,-0.114
1701528106.509,19.609,19.609,-19.609,0.0,0.0037,-0.0036000000000000003,-0.006,-0.045,-0.113
1701528106.549,19.609,19.609,-19.609,0.0028,0.002,-0.0047,-0.024,-0.027,-0.10400000000000001
1701528106.589,19.609,19.609,-19.609,-0.0009000000000000001,0.0014,-0.0078000000000000005,-0.018000000000000002,-0.028,-0.111
1701528106.629,19.609,19.609,-19.609,0.0011,0.002,0.0057,-0.019,-0.004,-0.107
1701528106.669,19.609,19.609,-19.609,0.0023,0.0034000000000000002,-0.0006000000000000001,-0.019,-0.029,-0.10200000000000001
1701528106.7089999,19.609,19.609,-19.609,0.0006000000000000001,0.0035,0.009300000000000001,-0.012,-0.025,-0.107
1701528106.749,19.609,19.609,-19.609,0.0001,0.0031000000000000003,-0.0029000000000000002,-0.013000000000000001,-0.019,-0.107
1701528106.789,19.609,19.609,-19.609,0.0023,0.0033,0.0032,-0.006,-0.035,-0.105
1701528106.829,19.609,19.609,-19.609,0.0014,0.0021000000000000003,-0.0038,-0.003,-0.039,-0.1
1701528106.869,19.609,19.609,-19.609,0.0004,0.0028,-0.0004,0.003,-0.028,-0.1
1701528106.909,19.609,19.609,-19.609,-0.0029000000000000002,0.0012000000000000001,0.0039000000000000003,-0.004,-0.034,-0.109
1701528106.949,19.609,19.609,-19.609,0.0029000000000000002,0.0021000000000000003,-0.0031000000000000003,0.004,-0.047,-0.105
1701528106.989,19.609,19.609,-19.609,0.0006000000000000001,0.0016,-0.0015,-0.038,-0.04,-0.105
1701528107.029,19.609,19.609,-19.609,0.00030000000000000003,0.0029000000000000002,-0.0012000000000000001,0.0,-0.05,-0.107
1701528107.069,19.609,19.609,-19.609,0.0022,0.0007,-0.0031000000000000003,-0.005,-0.055,-0.11
1701528107.109,19.609,19.609,-19.609,0.0,0.0022,0.0054,-0.002,-0.049,-0.10300000000000001
1701528107.149,19.609,19.609,-19.609,0.0012000000000000001,0.001,-0.010100000000000001,-0.009000000000000001,-0.077,-0.11
1701528107.189,19.609,19.609,-19.609,0.0009000000000000001,0.0015,-0.0021000000000000003,-0.007,-0.046,-0.10300000000000001
1701528107.229,19.609,19.609,-19.609,0.0002,0.0023,-0.0078000000000000005,-0.001,-0.047,-0.108
1701528107.269,19.609,19.609,-19.609,0.005,0.0036000000000000003,0.0006000000000000001,0.0,-0.041,-0.10300000000000001
1701528107.309,19.609,19.609,-19.609,0.0026000000000000003,0.0019,0.0002,-0.009000000000000001,-0.051000000000000004,-0.099
1701528107.349,19.609,19.609,-19.609,0.001,0.0012000000000000001,0.0091,0.008,-0.059000000000000004,-0.094
1701528107.389,19.609,19.609,-19.609,-0.0001,0.0024000000000000002,0.0005,0.002,-0.058,-0.10200000000000001
1701528107.429,19.609,19.609,-19.609,0.0025,0.0029000000000000002,0.006200000000000001,-0.003,-0.05,-0.107
1701528107.469,19.609,19.609,-19.609,0.00030000000000000003,0.0026000000000000003,0.001,-0.026000000000000002,-0.049,-0.099
1701528107.509,19.609,19.609,-19.609,0.0011,0.0017000000000000001,0.0013000000000000002,-0.006,-0.057,-0.10200000000000001
1701528107.549,19.609,19.609,-19.609,0.0015,-0.00030000000000000003,-0.0031000000000000003,-0.004,-0.05,-0.111
1701528107.589,19.609,19.609,-19.609,0.0012000000000000001,0.001,-0.0017000000000000001,-0.002,-0.042,-0.108
1701528107.629,19.609,19.609,-19.609,0.0011,0.003,-0.003,-0.003,-0.032,-0.096
1701528107.669,19.609,19.609,-19.609,0.0019,0.001,0.0026000000000000003,-0.001,-0.031,-0.099
1701528107.709,19.609,19.609,-19.609,0.0015,0.0038,0.0,0.001,-0.034,-0.105
1701528107.749,19.609,19.609,-19.609,0.0,0.0019,-0.0041,0.0,-0.037,-0.095
1701528107.789,19.609,19.609,-19.609,0.001,0.0007,0.0039000000000000003,0.007,-0.04,-0.101
1701528107.829,19.609,19.609,-19.609,-0.0002,0.0021000000000000003,-0.0029000000000000002,0.003,-0.047,-0.10400000000000001
1701528107.869,19.609,19.609,-19.609,0.0035,0.0014,-0.008400000000000001,0.003,-0.042,-0.099
1701528107.909,19.609,19.609,-19.609,0.0023,0.0023,-0.0006000000000000001,0.003,-0.036000000000000004,-0.099
1701528107.949,19.609,19.609,-19.609,0.0,0.0045000000000000005,-0.0256,-0.001,-0.031,-0.096
1701528107.9889998,19.609,19.609,-19.609,0.0001,0.0025,-0.0122,0.0,-0.029,-0.095
1701528108.029,19.609,19.609,-19.609,-0.0011,0.0017000000000000001,-0.013000000000000001,0.009000000000000001,-0.036000000000000004,-0.101
1701528108.069,19.609,19.609,-19.609,-0.0004,0.0012000000000000001,0.0054,0.003,-0.034,-0.096
1701528108.109,19.609,19.609,-19.609,-0.001,0.0031000000000000003,-0.0078000000000000005,-0.003,-0.041,-0.10300000000000001
1701528108.149,19.609,19.609,-19.609,0.0009000000000000001,0.0015,0.007500000000000001,-0.004,-0.044,-0.099
1701528108.189,19.609,19.609,-19.609,0.004200000000000001,0.004200000000000001,-0.006200000000000001,-0.004,-0.045,-0.094
1701528108.2289999,19.609,19.609,-19.609,0.0029000000000000002,0.0014,0.004200000000000001,-0.007,-0.035,-0.099
1701528108.269,19.609,19.609,-19.609,0.0011,0.0012000000000000001,-0.0039000000000000003,-0.015,-0.038,-0.095
1701528108.309,19.609,19.609,-19.609,0.0011,0.0012000000000000001,-0.005200000000000001,-0.003,-0.043000000000000003,-0.1
1701528108.349,19.609,19.609,-19.609,0.0031000000000000003,0.0046,-0.0064,-0.001,-0.044,-0.1
1701528108.389,19.609,19.609,-19.609,0.0,0.0014,0.0056,-0.007,-0.03,-0.096
1701528108.429,19.609,19.609,-19.609,0.0007,0.0007,0.0013000000000000002,-0.001,-0.032,-0.099
1701528108.4689999,19.609,19.609,-19.609,-0.0011,0.0006000000000000001,-0.0036000000000000003,-0.008,-0.033,-0.088
1701528108.509,19.609,19.609,-19.609,0.001,0.0035,0.0008,-0.04,-0.038,-0.098
1701528108.549,19.609,19.609,-19.609,0.00030000000000000003,0.005200000000000001,-0.0051,-0.009000000000000001,-0.032,-0.10300000000000001
1701528108.589,19.609,19.609,-19.609,-0.0022,0.0027,0.0013000000000000002,-0.001,-0.039,-0.097
1701528108.629,19.609,19.609,-19.609,0.0031000000000000003,0.0012000000000000001,-0.004,-0.025,-0.039,-0.097
1701528108.669,19.609,19.609,-19.609,-0.0001,0.0015,0.0014,-0.028,-0.037,-0.10300000000000001
1701528108.7089999,19.609,19.609,-19.609,0.00030000000000000003,0.0008,-0.0011,-0.019,-0.031,-0.107
1701528108.749,19.609,19.609,-19.609,0.0014,0.0024000000000000002,0.0022,-0.007,-0.037,-0.107
1701528108.789,19.609,19.609,-19.609,0.0006000000000000001,0.00030000000000000003,0.001,-0.012,-0.029,-0.10200000000000001
1701528108.829,19.609,19.609,-19.609,0.001,0.0018000000000000002,0.0006000000000000001,-0.003,-0.036000000000000004,-0.10400000000000001
1701528108.869,19.609,19.609,-19.609,0.0018000000000000002,-0.0007,0.0025,-0.003,-0.04,-0.10300000000000001
1701528108.909,19.609,19.609,-19.609,-0.0006000000000000001,0.0007,0.0028,-0.007,-0.034,-0.1
1701528108.949,19.609,19.609,-19.609,0.0021000000000000003,-0.0004,-0.014,-0.014,-0.041,-0.109
1701528108.989,19.609,19.609,-19.609,0.0035,0.0029000000000000002,0.0027,-0.009000000000000001,-0.047,-0.10200000000000001
1701528109.029,19.609,19.609,-19.609,0.0007,0.0032,-0.0119,-0.002,-0.043000000000000003,-0.10400000000000001
1701528109.069,19.609,19.609,-19.609,0.0015,0.0028,0.010400000000000001,-0.009000000000000001,-0.045,-0.113
1701528109.109,19.609,19.609,-19.609,0.002,0.0001,0.004200000000000001,-0.01,-0.035,-0.105
1701528109.149,19.609,19.609,-19.609,0.0015,0.0025,-0.0036000000000000003,-0.008,-0.038,-0.10300000000000001
1701528109.189,19.609,19.609,-19.609,-0.0001,0.0032,-0.013000000000000001,-0.005,-0.035,-0.111
1701528109.229,19.609,19.609,-19.609,0.001,0.002,0.0111,-0.007,-0.04,-0.107
1701528109.269,19.609,19.609,-19.609,0.0004,0.0024000000000000002,-0.0137,-0.006,-0.034,-0.098
1701528109.309,19.609,19.609,-19.609,0.0029000000000000002,0.0021000000000000003,0.0108,-0.009000000000000001,-0.031,-0.099
1701528109.349,19.609,19.609,-19.609,-0.0004,0.0001,-0.003,0.0,-0.036000000000000004,-0.106
1701528109.389,19.609,19.609,-19.609,0.0025,0.0006000000000000001,0.0022,-0.002,-0.041,-0.095
1701528109.429,19.609,19.609,-19.609,-0.0001,0.00030000000000000003,-0.0053,0.0,-0.053,-0.099
1701528109.469,19.609,19.609,-19.609,0.0053,0.0007,0.0012000000000000001,0.005,-0.061,-0.114
1701528109.509,19.609,19.609,-19.609,0.0031000000000000003,0.0008,-0.0009000000000000001,0.002,-0.063,-0.10300000000000001
1701528109.549,19.609,19.609,-19.609,0.0023,0.0018000000000000002,-0.00030000000000000003,0.002,-0.06,-0.107
1701528109.589,19.609,19.609,-19.609,0.0007,0.0036000000000000003,-0.0007,-0.003,-0.052000000000000005,-0.10400000000000001
1701528109.629,19.609,19.609,-19.609,0.0004,0.0013000000000000002,-0.0021000000000000003,-0.007,-0.046,-0.108
1701528109.669,19.609,19.609,-19.609,0.0028,0.0029000000000000002,0.007500000000000001,-0.011,-0.043000000000000003,-0.106
1701528109.709,19.609,19.609,-19.609,0.0006000000000000001,0.0031000000000000003,-0.006500000000000001,-0.011,-0.035,-0.105
1701528109.749,19.609,19.609,-19.609,0.0036000000000000003,0.0032,0.0048000000000000004,-0.01,-0.028,-0.11
1701528109.789,19.609,19.609,-19.609,0.004,0.0017000000000000001,-0.030000000000000002,-0.003,-0.041,-0.114
1701528109.829,19.609,19.609,-19.609,0.0005,0.0014,-0.0041,-0.001,-0.052000000000000005,-0.109
1701528109.869,19.609,19.609,-19.609,0.003,0.003,-0.0004,-0.008,-0.046,-0.109
1701528109.909,19.609,19.609,-19.609,0.001,0.0012000000000000001,-0.0011,-0.013000000000000001,-0.049,-0.108
1701528109.949,19.609,19.609,-19.609,0.0016,0.0017000000000000001,0.0018000000000000002,-0.007,-0.052000000000000005,-0.108
1701528109.9889998,19.609,19.609,-19.609,0.0007,0.0007,-0.0033,-0.007,-0.044,-0.115
1701528110.029,19.609,19.609,-19.609,0.001,0.004200000000000001,0.0009000000000000001,-0.014,-0.032,-0.113
1701528110.069,19.609,19.609,-19.609,0.0012000000000000001,0.0014,-0.0026000000000000003,-0.019,-0.033,-0.11800000000000001
1701528110.109,19.609,19.609,-19.609,0.0009000000000000001,0.0021000000000000003,-0.0014,-0.016,-0.042,-0.10400000000000001
1701528110.149,19.609,19.609,-19.609,0.0009000000000000001,0.0045000000000000005,-0.0026000000000000003,-0.017,-0.026000000000000002,-0.111
1701528110.189,19.609,19.609,-19.609,0.0056,0.0031000000000000003,0.0054,-0.007,-0.028,-0.108
1701528110.2289999,19.609,19.609,-19.609,0.0008,0.0028,-0.006200000000000001,-0.02,-0.016,-0.098
1701528110.269,19.609,19.609,-19.609,-0.0031000000000000003,0.0015,-0.0017000000000000001,0.003,-0.02,-0.10200000000000001
1701528110.309,19.609,19.609,-19.609,0.0031000000000000003,0.0022,0.007,-0.001,-0.026000000000000002,-0.1
1701528110.349,19.609,19.609,-19.609,0.0005,0.002,-0.0131,-0.002,-0.026000000000000002,-0.1
1701528110.389,19.609,19.609,-19.609,-0.0026000000000000003,0.0021000000000000003,0.0022,-0.004,-0.046,-0.1
1701528110.429,19.609,19.609,-19.609,0.0007,0.0028,-0.0015,-0.003,-0.044,-0.095
1701528110.4689999,19.609,19.609,-19.609,0.0009000000000000001,0.0014,0.0021000000000000003,-0.007,-0.041,-0.10200000000000001
1701528110.509,19.609,19.609,-19.609,0.0007,0.0018000000000000002,0.0063,-0.004,-0.02,-0.101
1701528110.549,19.609,19.609,-19.609,0.00030000000000000003,0.0034000000000000002,-0.016800000000000002,-0.016,-0.035,-0.107
1701528110.589,19.609,19.609,-19.609,0.0004,-0.0011,0.004200000000000001,-0.011,-0.042,-0.10200000000000001
1701528110.629,19.609,19.609,-19.609,0.0009000000000000001,0.0014,-0.0018000000000000002,0.0,-0.042,-0.089
1701528110.669,19.609,19.609,-19.609,0.0013000000000000002,0.0015,0.0,-0.008,-0.033,-0.101
1701528110.7089999,19.609,19.609,-19.609,0.0001,0.0054,-0.0028,-0.002,-0.036000000000000004,-0.105
1701528110.749,19.609,19.609,-19.609,0.0025,0.0025,0.0027,-0.004,-0.045,-0.10400000000000001
1701528110.789,19.609,19.609,-19.609,0.0004,0.0015,-0.0031000000000000003,-0.006,-0.052000000000000005,-0.10200000000000001
1701528110.829,19.609,19.609,-19.609,-0.001,0.0029000000000000002,0.0026000000000000003,-0.001,-0.045,-0.098
1701528110.869,19.609,19.609,-19.609,-0.001,0.0024000000000000002,0.0018000000000000002,-0.012,-0.037,-0.099
1701528110.909,19.609,19.609,-19.609,-0.0001,-0.00030000000000000003,-0.002,0.001,-0.04,-0.094
1701528110.949,19.609,19.609,-19.609,0.0015,0.0034000000000000002,-0.0031000000000000003,-0.003,-0.027,-0.10400000000000001
1701528110.989,19.609,19.609,-19.609,0.0001,0.0032,0.0012000000000000001,0.0,-0.033,-0.10300000000000001
1701528111.029,19.609,19.609,-19.609,0.0018000000000000002,0.0029000000000000002,-0.0018000000000000002,-0.002,-0.035,-0.098
1701528111.069,19.609,19.609,-19.609,0.0033,0.001,-0.0013000000000000002,-0.004,-0.04,-0.106
1701528111.109,19.609,19.609,-19.609,0.0012000000000000001,0.0004,0.0011,0.0,-0.043000000000000003,-0.112
1701528111.149,19.609,19.609,-19.609,0.0009000000000000001,0.0009000000000000001,0.0016,-0.007,-0.041,-0.10200000000000001
1701528111.189,19.609,19.609,-19.609,-0.0001,0.0048000000000000004,0.0034000000000000002,-0.002,-0.052000000000000005,-0.106
1701528111.229,19.609,19.609,-19.609,0.00030000000000000003,0.0017000000000000001,-0.0059,-0.012,-0.052000000000000005,-0.11
1701528111.269,19.609,19.609,-19.609,0.002,0.0037,0.0021000000000000003,-0.007,-0.037,-0.106
1701528111.309,19.609,19.609,-19.609,0.0004,0.0019,-0.0039000000000000003,0.0,-0.044,-0.10300000000000001
1701528111.349,19.609,19.609,-19.609,-0.0015,0.0015,0.0036000000000000003,-0.006,-0.038,-0.1
1701528111.389,19.609,19.609,-19.609,0.0007,0.0018000000000000002,-0.0068000000000000005,-0.003,-0.045,-0.101
1701528111.429,19.609,19.609,-19.609,0.0006000000000000001,0.0017000000000000001,-0.0051,0.005,-0.05,-0.099
1701528111.469,19.609,19.609,-19.609,0.0018000000000000002,0.0012000000000000001,0.006900000000000001,0.002,-0.042,-0.099
1701528111.509,19.609,19.609,-19.609,-0.0002,0.0014,-0.0012000000000000001,0.003,-0.043000000000000003,-0.10300000000000001
1701528111.549,19.609,19.609,-19.609,0.0,0.0012000000000000001,0.0053,-0.01,-0.038,-0.099
1701528111.589,19.609,19.609,-19.609,0.0011,0.0043,-0.0095,-0.007,-0.046,-0.10400000000000001
1701528111.629,19.609,19.609,-19.609,0.0048000000000000004,0.0029000000000000002,-0.0241,-0.002,-0.045,-0.109
1701528111.669,19.609,19.609,-19.609,0.0018000000000000002,0.0035,-0.0004,-0.005,-0.04,-0.10400000000000001
1701528111.709,19.609,19.609,-19.609,0.0031000000000000003,0.0014,0.0017000000000000001,-0.005,-0.042,-0.099
1701528111.749,19.609,19.609,-19.609,0.0025,0.0015,-0.0018000000000000002,-0.005,-0.038,-0.098
1701528111.789,19.609,19.609,-19.609,0.0018000000000000002,0.0024000000000000002,0.0032,0.0,-0.034,-0.099
1701528111.829,19.609,19.609,-19.609,0.0013000000000000002,0.002,-0.0037,-0.006,-0.023,-0.095
1701528111.869,19.609,19.609,-19.609,0.0031000000000000003,0.0041,-0.0222,0.003,-0.036000000000000004,-0.094
1701528111.909,19.609,19.609,-19.609,0.0032,0.0012000000000000001,0.018600000000000002,0.003,-0.039,-0.10300000000000001
1701528111.949,19.609,19.609,-19.609,0.0018000000000000002,0.0012000000000000001,-0.0029000000000000002,0.001,-0.05,-0.1
1701528111.9889998,19.609,19.609,-19.609,0.0039000000000000003,0.0027,0.001,-0.007,-0.048,-0.10200000000000001
1701528112.029,19.609,19.609,-19.609,0.0007,0.002,-0.0067,-0.003,-0.054,-0.106
1701528112.069,19.609,19.609,-19.609,0.0016,0.0034000000000000002,0.006500000000000001,-0.001,-0.052000000000000005,-0.10300000000000001
1701528112.109,19.609,19.609,-19.609,0.0002,0.0028,-0.0094,-0.005,-0.048,-0.105
1701528112.149,19.609,19.609,-19.609,0.0016,0.0017000000000000001,0.003,-0.001,-0.053,-0.109
1701528112.189,19.609,19.609,-19.609,-0.00030000000000000003,0.0033,-0.0004,-0.003,-0.07,-0.115
1701528112.2289999,19.609,19.609,-19.609,0.0054,0.0043,-0.0044,-0.009000000000000001,-0.047,-0.107
1701528112.269,19.609,19.609,-19.609,0.0007,0.0026000000000000003,-0.0012000000000000001,0.005,-0.049,-0.10400000000000001
1701528112.309,19.609,19.609,-19.609,0.0005,0.0019,0.0035,0.006,-0.046,-0.109
1701528112.349,19.609,19.609,-19.609,0.0,0.001,-0.001,-0.007,-0.047,-0.108
1701528112.389,19.609,19.609,-19.609,0.0025,0.0018000000000000002,-0.0051,0.003,-0.049,-0.108
1701528112.429,19.609,19.609,-19.609,-0.0001,0.0,0.00030000000000000003,-0.004,-0.053,-0.114
1701528112.4689999,19.609,19.609,-19.609,0.00030000000000000003,0.0024000000000000002,0.0026000000000000003,-0.004,-0.049,-0.108
1701528112.509,19.609,19.609,-19.609,0.0012000000000000001,0.003,0.00030000000000000003,-0.006,-0.045,-0.107
1701528112.549,19.609,19.609,-19.609,0.0008,0.0015,0.0015,0.0,-0.037,-0.106
1701528112.589,19.609,19.609,-19.609,0.002,0.0037,-0.0014,-0.001,-0.043000000000000003,-0.105
1701528112.629,19.609,19.609,-19.609,0.001,-0.0009000000000000001,-0.005200000000000001,-0.006,-0.038,-0.107
1701528112.669,19.609,19.609,-19.609,0.0,0.003,-0.0081,-0.006,-0.034,-0.10200000000000001
1701528112.7089999,19.609,19.609,-19.609,-0.0006000000000000001,0.0019,0.001,-0.002,-0.04,-0.10400000000000001
1701528112.749,19.609,19.609,-19.609,0.0005,0.0021000000000000003,0.0001,0.015,-0.041,-0.109
1701528112.789,19.609,19.609,-19.609,0.0019,0.0011,-0.0012000000000000001,-0.007,-0.045,-0.105
1701528112.829,19.609,19.609,-19.609,0.0041,0.0006000000000000001,-0.0073,-0.007,-0.046,-0.113
1701528112.869,19.609,19.609,-19.609,0.001,0.0016,0.0018000000000000002,-0.005,-0.044,-0.112
1701528112.909,19.609,19.609,-19.609,0.0016,0.0028,-0.005,-0.013000000000000001,-0.032,-0.101
1701528112.949,19.609,19.609,-19.609,0.0021000000000000003,0.0021000000000000003,0.008400000000000001,-0.011,-0.034,-0.098
1701528112.989,19.609,19.609,-19.609,0.004,0.0034000000000000002,0.0,-0.007,-0.029,-0.098
1701528113.029,19.609,19.609,-19.609,0.0016,0.0021000000000000003,-0.0007,-0.004,-0.033,-0.10300000000000001
1701528113.069,19.609,19.609,-19.609,0.0015,0.0036000000000000003,-0.0021000000000000003,0.001,-0.034,-0.109
1701528113.109,19.609,19.609,-19.609,0.0004,0.0021000000000000003,0.0047,0.004,-0.036000000000000004,-0.094
1701528113.149,19.609,19.609,-19.609,0.0023,0.0019,0.0029000000000000002,0.0,-0.027,-0.097
1701528113.189,19.609,19.609,-19.609,0.0014,0.0022,-0.0005,-0.002,-0.038,-0.094
1701528113.229,19.609,19.609,-19.609,0.001,0.001,-0.00030000000000000003,0.0,-0.052000000000000005,-0.096
1701528113.269,19.609,19.609,-19.609,0.0028,0.0025,-0.0005,-0.003,-0.042,-0.10400000000000001
1701528113.309,19.609,19.609,-19.609,0.0035,0.0012000000000000001,-0.0129,0.002,-0.034,-0.101
1701528113.349,19.609,19.609,-19.609,0.0023,0.00030000000000000003,-0.008400000000000001,-0.001,-0.029,-0.095
1701528113.389,19.609,19.609,-19.609,0.0014,0.0021000000000000003,-0.0016,0.003,-0.035,-0.089
1701528113.429,19.609,19.609,-19.609,0.0029000000000000002,0.0007,0.0032,0.003,-0.033,-0.10200000000000001
1701528113.469,19.609,19.609,-19.609,0.0024000000000000002,0.002,-0.0054,0.0,-0.035,-0.10300000000000001
1701528113.509,19.609,19.609,-19.609,0.0033,0.0014,0.002,0.007,-0.038,-0.094
1701528113.549,19.609,19.609,-19.609,0.0007,0.0039000000000000003,-0.0026000000000000003,-0.001,-0.033,-0.10200000000000001
1701528113.589,19.609,19.609,-19.609,0.0032,0.0029000000000000002,0.0038,-0.003,-0.037,-0.10400000000000001
1701528113.629,19.609,19.609,-19.609,0.00030000000000000003,0.0026000000000000003,-0.0054,-0.003,-0.044,-0.096
1701528113.669,19.609,19.609,-19.609,0.003,0.0033,0.0005,-0.014,-0.038,-0.106
1701528113.709,19.609,19.609,-19.609,0.0015,0.0038,-0.0076,-0.007,-0.04,-0.107
1701528113.749,19.609,19.609,-19.609,0.0017000000000000001,0.0033,-0.0046,-0.003,-0.036000000000000004,-0.10200000000000001
1701528113.789,19.609,19.609,-19.609,0.0006000000000000001,0.002,0.0002,0.0,-0.033,-0.097
1701528113.829,19.609,19.609,-19.609,0.0,0.0019,0.0045000000000000005,-0.004,-0.031,-0.098
1701528113.869,19.609,19.609,-19.609,-0.0016,0.0028,-0.0006000000000000001,-0.005,-0.038,-0.1
1701528113.909,19.609,19.609,-19.609,-0.0002,0.0021000000000000003,0.0017000000000000001,0.0,-0.046,-0.1
1701528113.949,19.609,19.609,-19.609,0.00030000000000000003,0.0007,-0.0008,-0.054,-0.036000000000000004,-0.10400000000000001
1701528113.9889998,19.609,19.609,-19.609,0.0015,0.0034000000000000002,-0.0017000000000000001,-0.007,-0.009000000000000001,-0.112
1701528114.029,19.609,19.609,-19.609,0.0004,0.001,-0.013600000000000001,0.002,-0.038,-0.106
1701528114.069,19.609,19.609,-19.609,-0.0002,0.0036000000000000003,0.0028,-0.011,-0.018000000000000002,-0.109
1701528114.109,19.609,19.609,-19.609,0.0001,0.0022,0.0004,-0.01,-0.045,-0.114
1701528114.149,19.609,19.609,-19.609,0.0017000000000000001,0.0023,-0.003,-0.019,-0.007,-0.11
1701528114.189,19.609,19.609,-19.609,0.0,0.0011,-0.0005,-0.014,-0.039,-0.10300000000000001
1701528114.2289999,19.609,19.609,-19.609,0.002,0.0015,0.0077,-0.018000000000000002,-0.026000000000000002,-0.10300000000000001
1701528114.269,19.609,19.609,-19.609,0.0015,0.0034000000000000002,0.004200000000000001,-0.014,-0.036000000000000004,-0.11
1701528114.309,19.609,19.609,-19.609,0.004200000000000001,0.0015,0.0012000000000000001,-0.013000000000000001,-0.04,-0.11
1701528114.349,19.609,19.609,-19.609,0.0008,0.0015,-0.006200000000000001,-0.002,-0.052000000000000005,-0.116
1701528114.389,19.609,19.609,-19.609,-0.00030000000000000003,0.0,0.00030000000000000003,-0.003,-0.04,-0.122
1701528114.429,19.609,19.609,-19.609,0.0019,0.0008,0.0005,-0.001,-0.057,-0.114
1701528114.4689999,19.609,19.609,-19.609,0.0023,0.0007,0.0013000000000000002,-0.009000000000000001,-0.048,-0.116
1701528114.509,19.609,19.609,-19.609,0.0027,0.0043,-0.0111,-0.026000000000000002,-0.043000000000000003,-0.107
1701528114.549,19.609,19.609,-19.609,0.0004,0.004,0.0083,-0.03,-0.057,-0.106
1701528114.589,19.609,19.609,-19.609,0.0019,0.0034000000000000002,0.0015,-0.03,-0.062,-0.109
1701528114.629,19.609,19.609,-19.609,-0.00030000000000000003,0.0045000000000000005,-0.0004,-0.021,-0.062,-0.108
1701528114.669,19.609,19.609,-19.609,0.0049,0.0051,0.0007,-0.008,-0.065,-0.121
1701528114.7089999,19.609,19.609,-19.609,0.0009000000000000001,0.0014,-0.0015,-0.013000000000000001,-0.068,-0.122
1701528114.749,19.609,19.609,-19.609,0.0025,0.0018000000000000002,-0.0016,-0.005,-0.079,-0.121
1701528114.789,19.609,19.609,-19.609,0.0009000000000000001,0.0006000000000000001,-0.0046,-0.012,-0.06,-0.11800000000000001
1701528114.829,19.609,19.609,-19.609,0.00030000000000000003,0.0027,0.006500000000000001,-0.008,-0.062,-0.122
1701528114.869,19.609,19.609,-19.609,-0.0002,0.0029000000000000002,-0.0007,-0.009000000000000001,-0.058,-0.114
1701528114.909,19.609,19.609,-19.609,-0.0001,0.0032,-0.0035,-0.005,-0.067,-0.116
1701528114.949,19.609,19.609,-19.609,0.0017000000000000001,0.0028,-0.0018000000000000002,-0.01,-0.055,-0.117
1701528114.989,19.609,19.609,-19.609,0.0032,0.0005,-0.0106,-0.004,-0.05,-0.111
1701528115.029,19.609,19.609,-19.609,0.0005,0.0008,-0.0001,-0.001,-0.054,-0.10400000000000001
1701528115.069,19.609,19.609,-19.609,-0.001,0.0018000000000000002,0.0043,-0.006,-0.042,-0.10200000000000001
1701528115.109,19.609,19.609,-19.609,0.002,0.0022,0.0029000000000000002,-0.006,-0.038,-0.105
1701528115.149,19.609,19.609,-19.609,0.0029000000000000002,0.0028,0.0057,-0.006,-0.026000000000000002,-0.096
1701528115.189,19.609,19.609,-19.609,0.0029000000000000002,0.0017000000000000001,0.004200000000000001,0.001,-0.037,-0.091
1701528115.229,19.609,19.609,-19.609,0.0021000000000000003,0.0026000000000000003,0.0033,0.007,-0.03,-0.10400000000000001
1701528115.269,19.609,19.609,-19.609,-0.0006000000000000001,0.0011,-0.007200000000000001,0.01,-0.037,-0.098
1701528115.309,19.609,19.609,-19.609,0.0004,0.0013000000000000002,0.0054,0.006,-0.045,-0.094
1701528115.349,19.609,19.609,-19.609,0.0019,0.0029000000000000002,0.0009000000000000001,-0.001,-0.031,-0.092
1701528115.389,19.609,19.609,-19.609,0.0001,0.0016,0.0035,0.001,-0.031,-0.089
1701528115.429,19.609,19.609,-19.609,0.0022,0.002,0.0057,-0.002,-0.021,-0.084
1701528115.469,19.609,19.609,-19.609,0.0006000000000000001,0.0022,-0.0021000000000000003,0.001,-0.028,-0.085
1701528115.509,19.609,19.609,-19.609,0.0004,0.0031000000000000003,0.0007,-0.004,-0.034,-0.093
1701528115.549,19.609,19.609,-19.609,0.0012000000000000001,0.0001,0.0056,-0.001,-0.031,-0.096
1701528115.589,19.609,19.609,-19.609,-0.0015,0.004200000000000001,0.0025,0.008,-0.015,-0.094
1701528115.629,19.609,19.609,-19.609,0.0004,0.0023,-0.0026000000000000003,0.0,-0.03,-0.1
1701528115.669,19.609,19.609,-19.609,0.0022,0.0026000000000000003,0.0001,0.006,-0.028,-0.085
1701528115.709,19.609,19.609,-19.609,0.0023,0.0023,-0.0004,-0.001,-0.047,-0.084
1701528115.749,19.609,19.609,-19.609,-0.0001,0.0016,-0.0022,0.001,-0.028,-0.099
1701528115.789,19.609,19.609,-19.609,0.0015,0.0026000000000000003,0.0024000000000000002,0.001,-0.028,-0.096
1701528115.829,19.609,19.609,-19.609,0.0033,0.0028,-0.0036000000000000003,0.028,-0.026000000000000002,-0.093
1701528115.869,19.609,19.609,-19.609,0.002,0.0059,-0.0032,0.001,-0.04,-0.091
1701528115.909,19.609,19.609,-19.609,0.002,0.004,-0.0008,-0.01,-0.032,-0.10300000000000001
1701528115.949,19.609,19.609,-19.609,0.0006000000000000001,0.0026000000000000003,-0.005200000000000001,0.001,-0.035,-0.10400000000000001
1701528115.9889998,19.609,19.609,-19.609,0.0011,0.0006000000000000001,-0.006900000000000001,0.0,-0.037,-0.092
1701528116.029,19.609,19.609,-19.609,0.0017000000000000001,0.0007,-0.0097,-0.004,-0.039,-0.105
1701528116.069,19.609,19.609,-19.609,0.0014,0.0015,0.0119,-0.001,-0.045,-0.10400000000000001
1701528116.109,19.609,19.609,-19.609,0.0004,0.0009000000000000001,-0.010400000000000001,-0.005,-0.036000000000000004,-0.1
1701528116.149,19.609,19.609,-19.609,0.0021000000000000003,0.0028,0.006900000000000001,-0.005,-0.031,-0.10300000000000001
1701528116.189,19.609,19.609,-19.609,0.0006000000000000001,0.0028,0.0027,-0.038,-0.023,-0.10200000000000001
1701528116.2289999,19.609,19.609,-19.609,0.0014,0.0017000000000000001,-0.0066,-0.003,-0.023,-0.094
1701528116.269,19.609,19.609,-19.609,0.0032,0.0035,0.0039000000000000003,-0.005,-0.026000000000000002,-0.093
1701528116.309,19.609,19.609,-19.609,0.001,0.0026000000000000003,-0.0007,-0.001,-0.031,-0.093
1701528116.349,19.609,19.609,-19.609,0.0022,0.0019,0.0039000000000000003,-0.006,-0.03,-0.099
1701528116.389,19.609,19.609,-19.609,-0.0009000000000000001,0.0029000000000000002,-0.0007,0.001,-0.036000000000000004,-0.1
1701528116.429,19.609,19.609,-19.609,0.0018000000000000002,0.0017000000000000001,-0.0058000000000000005,0.001,-0.037,-0.098
1701528116.4689999,19.609,19.609,-19.609,0.0047,0.0022,-0.0073,0.002,-0.035,-0.108
1701528116.509,19.609,19.609,-19.609,0.0005,0.0034000000000000002,-0.0035,-0.005,-0.043000000000000003,-0.105
1701528116.549,19.609,19.609,-19.609,0.0,0.0015,0.0029000000000000002,-0.007,-0.049,-0.10300000000000001
1701528116.589,19.609,19.609,-19.609,0.0018000000000000002,0.0008,0.0026000000000000003,-0.008,-0.043000000000000003,-0.116
1701528116.629,19.609,19.609,-19.609,0.00030000000000000003,0.0028,0.0,-0.006,-0.042,-0.106
1701528116.669,19.609,19.609,-19.609,0.0018000000000000002,0.0014,-0.013800000000000002,-0.01,-0.045,-0.105
1701528116.7089999,19.609,19.609,-19.609,-0.0011,0.0009000000000000001,-0.0028,-0.009000000000000001,-0.05,-0.096
1701528116.749,19.609,19.609,-19.609,0.0018000000000000002,0.0012000000000000001,0.0012000000000000001,-0.009000000000000001,-0.043000000000000003,-0.098
1701528116.789,19.609,19.609,-19.609,-0.0007,0.0031000000000000003,-0.0073,0.001,-0.038,-0.10200000000000001
1701528116.829,19.609,19.609,-19.609,0.0004,0.0021000000000000003,0.015300000000000001,-0.005,-0.035,-0.099
1701528116.869,19.609,19.609,-19.609,0.0028,0.0016,0.002,0.003,-0.031,-0.106
1701528116.909,19.609,19.609,-19.609,-0.0018000000000000002,0.0022,0.0013000000000000002,0.001,-0.04,-0.098
1701528116.949,19.609,19.609,-19.609,-0.0009000000000000001,0.0022,0.019700000000000002,-0.005,-0.043000000000000003,-0.105
1701528116.989,19.609,19.609,-19.609,0.0006000000000000001,0.0038,0.0036000000000000003,-0.003,-0.042,-0.098
1701528117.029,19.609,19.609,-19.609,0.0007,0.002,-0.0013000000000000002,-0.007,-0.038,-0.10400000000000001
1701528117.069,19.609,19.609,-19.609,0.0005,0.0024000000000000002,-0.0028,-0.002,-0.041,-0.10400000000000001
1701528117.109,19.609,19.609,-19.609,0.0031000000000000003,0.0034000000000000002,-0.00030000000000000003,-0.005,-0.038,-0.106
1701528117.149,19.609,19.609,-19.609,0.0009000000000000001,0.0019,-0.0021000000000000003,0.0,-0.043000000000000003,-0.111
1701528117.189,19.609,19.609,-19.609,0.0007,0.0009000000000000001,-0.0045000000000000005,-0.011,-0.046,-0.113
1701528117.229,19.609,19.609,-19.609,-0.0009000000000000001,0.0046,0.0024000000000000002,0.0,-0.067,-0.083
1701528117.269,19.609,19.609,-19.609,-0.002,0.0015,0.0014,0.029,-0.126,-0.029
1701528117.309,19.609,19.609,-19.609,0.0043,0.0029000000000000002,-0.0006000000000000001,0.08,-0.18,0.036000000000000004
1701528117.349,19.609,19.609,-19.609,0.0036000000000000003,0.0028,0.0036000000000000003,0.121,-0.17500000000000002,0.053
1701528117.389,19.609,19.609,-19.609,0.0018000000000000002,0.0012000000000000001,-0.0017000000000000001,0.091,-0.11800000000000001,0.117
1701528117.429,19.609,19.609,-19.609,0.0004,0.004,-0.003,0.122,-0.148,0.099
1701528117.469,19.609,19.609,-19.609,0.001,0.0017000000000000001,-0.0007,0.147,-0.114,0.079
1701528117.509,19.609,19.609,-19.609,-0.0001,0.0041,0.0017000000000000001,0.147,-0.14200000000000002,0.085
1701528117.549,19.609,19.609,-19.609,0.0007,0.004200000000000001,-0.0017000000000000001,0.17,-0.162,0.07
1701528117.589,19.609,19.609,-19.609,0.0019,0.0026000000000000003,-0.0001,0.07,-0.138,0.046
1701528117.629,19.609,19.609,-19.609,0.0035,0.0011,-0.0054,-0.007,-0.122,-0.063
1701528117.669,19.609,19.609,-19.609,-0.0007,0.0043,-0.0024000000000000002,-0.003,-0.129,-0.1
1701528117.709,19.609,19.609,-19.609,0.0034000000000000002,0.0029000000000000002,-0.0061,0.001,-0.128,-0.124
1701528117.749,19.609,19.609,-19.609,-0.0013000000000000002,0.0043,-0.0043,-0.001,-0.128,-0.145
1701528117.789,19.609,19.609,-19.609,0.0033,0.0027,-0.0125,0.011,-0.094,-0.139
1701528117.829,19.609,19.609,-19.609,0.0021000000000000003,0.0017000000000000001,0.0083,-0.012,-0.082,-0.11900000000000001
1701528117.869,19.609,19.609,-19.609,0.002,0.0023,0.003,-0.002,-0.074,-0.093
1701528117.909,19.609,19.609,-19.609,0.0043,0.0037,-0.0037,0.008,-0.051000000000000004,-0.091
1701528117.949,19.609,19.609,-19.609,0.0014,0.0032,-0.0051,0.034,-0.054,-0.112
1701528117.9889998,19.609,19.609,-19.609,0.00030000000000000003,0.0029000000000000002,-0.0006000000000000001,0.034,-0.057,-0.114
1701528118.029,19.609,19.609,-19.609,0.0023,0.0022,-0.0006000000000000001,0.037,-0.049,-0.125
1701528118.069,19.609,19.609,-19.609,0.0025,0.0,0.0032,0.034,-0.04,-0.131
1701528118.109,19.609,19.609,-19.609,0.0016,0.0039000000000000003,-0.0046,0.02,-0.039,-0.122
1701528118.149,19.609,19.609,-19.609,0.0005,0.0019,0.0005,0.001,-0.051000000000000004,-0.101
1701528118.189,19.609,19.609,-19.609,0.0025,0.0027,-0.002,-0.022,-0.049,-0.099
1701528118.2289999,19.609,19.609,-19.609,-0.0012000000000000001,0.0019,-0.0016,0.002,-0.065,-0.106
1701528118.269,19.609,19.609,-19.609,0.001,0.0046,-0.0014,-0.017,-0.062,-0.101
1701528118.309,19.609,19.609,-19.609,0.0023,0.0029000000000000002,0.00030000000000000003,-0.03,-0.039,-0.078
1701528118.349,19.609,19.609,-19.609,-0.0009000000000000001,0.0026000000000000003,-0.0016,-0.042,-0.047,-0.052000000000000005
1701528118.389,19.609,19.609,-19.609,0.0006000000000000001,0.0018000000000000002,-0.0014,-0.045,-0.042,-0.056
1701528118.429,19.609,19.609,-19.609,-0.0001,0.0028,0.0021000000000000003,-0.07100000000000001,-0.025,-0.056
1701528118.4689999,19.609,19.609,-19.609,-0.0001,0.0021000000000000003,0.001,-0.053,-0.048,-0.064
1701528118.509,19.609,19.609,-19.609,0.0038,0.0021000000000000003,-0.0026000000000000003,-0.063,-0.068,-0.066
1701528118.549,19.609,19.609,-19.609,0.0002,0.0025,-0.00030000000000000003,-0.066,-0.083,-0.079
1701528118.589,19.609,19.609,-19.609,0.0005,0.002,0.0034000000000000002,-0.063,-0.092,-0.088
1701528118.629,19.609,19.609,-19.609,0.0016,0.0031000000000000003,-0.0044,-0.05,-0.051000000000000004,-0.10400000000000001
1701528118.669,19.609,19.609,-19.609,0.0014,0.0015,0.0009000000000000001,-0.04,-0.025,-0.12
1701528118.7089999,19.609,19.609,-19.609,0.0029000000000000002,0.002,0.007,-0.029,0.006,-0.14100000000000001
1701528118.749,19.609,19.609,-19.609,0.0,0.0031000000000000003,-0.0143,-0.018000000000000002,0.009000000000000001,-0.135
1701528118.789,19.609,19.609,-19.609,0.0051,0.0021000000000000003,-0.0224,-0.009000000000000001,0.001,-0.137
1701528118.829,19.609,19.609,-19.609,0.0021000000000000003,0.0027,0.0059,-0.007,-0.016,-0.123
1701528118.869,19.609,19.609,-19.609,0.0004,0.0032,0.0015,-0.005,-0.035,-0.125
1701528118.909,19.609,19.609,-19.609,0.0044,0.0025,0.0006000000000000001,0.0,-0.046,-0.11800000000000001
1701528118.949,19.609,19.609,-19.609,0.002,0.0034000000000000002,-0.00030000000000000003,0.012,-0.04,-0.127
1701528118.989,19.609,19.609,-19.609,0.001,0.0031000000000000003,-0.0028,0.012,-0.026000000000000002,-0.135
1701528119.029,19.609,19.609,-19.609,0.0015,0.0045000000000000005,0.0004,0.025,-0.02,-0.11900000000000001
1701528119.069,19.609,19.609,-19.609,0.0029000000000000002,0.0026000000000000003,-0.0013000000000000002,0.04,-0.039,-0.12
1701528119.109,19.609,19.609,-19.609,-0.0004,0.0021000000000000003,-0.0078000000000000005,0.047,-0.044,-0.124
1701528119.149,19.609,19.609,-19.609,0.0,0.0032,0.0053,0.021,-0.044,-0.128
1701528119.189,19.609,19.609,-19.609,0.0009000000000000001,0.0017000000000000001,-0.0043,0.011,-0.045,-0.111
1701528119.229,19.609,19.609,-19.609,0.001,0.0018000000000000002,-0.0017000000000000001,-0.019,-0.054,-0.095
1701528119.269,19.609,19.609,-19.609,0.002,-0.0002,0.0,-0.013000000000000001,-0.013000000000000001,-0.117
1701528119.309,19.609,19.609,-19.609,0.0028,0.0025,-0.0019,-0.004,-0.009000000000000001,-0.14
1701528119.349,19.609,19.609,-19.609,0.0004,0.0032,0.005200000000000001,0.034,0.068,-0.17
1701528119.389,19.609,19.609,-19.609,-0.0004,0.0032,-0.0031000000000000003,0.018000000000000002,0.055,-0.197
1701528119.429,19.609,19.609,-19.609,0.0,0.0043,-0.003,0.022,0.093,-0.213
1701528119.469,19.609,19.609,-19.609,-0.00030000000000000003,0.0017000000000000001,0.0032,0.017,0.101,-0.215
1701528119.509,19.609,19.609,-19.609,0.0004,0.0015,-0.006200000000000001,-0.013000000000000001,0.09,-0.216
1701528119.549,19.609,19.609,-19.609,-0.0006000000000000001,0.0018000000000000002,-0.0015,-0.006,0.127,-0.203
1701528119.589,19.609,19.609,-19.609,0.0018000000000000002,0.0033,-0.004,-0.013000000000000001,0.134,-0.20600000000000002
1701528119.629,19.609,19.609,-19.609,0.0026000000000000003,0.0028,0.0079,0.003,0.168,-0.17200000000000001
1701528119.669,19.609,19.609,-19.609,0.0024000000000000002,0.0017000000000000001,-0.0073,-0.007,0.158,-0.165
1701528119.709,19.609,19.609,-19.609,0.0037,0.0018000000000000002,0.0031000000000000003,-0.007,0.126,-0.145
1701528119.749,19.609,19.609,-19.609,0.0032,0.0016,0.0025,0.0,0.051000000000000004,-0.123
1701528119.789,19.609,19.609,-19.609,-0.0014,0.004,-0.0114,-0.018000000000000002,0.041,-0.113
1701528119.829,19.609,19.609,-19.609,-0.001,0.0032,-0.003,-0.032,0.035,-0.096
1701528119.869,19.609,19.609,-19.609,0.0004,0.0026000000000000003,-0.0034000000000000002,-0.031,0.01,-0.094
1701528119.909,19.609,19.609,-19.609,0.0025,0.0011,-0.002,0.003,0.002,-0.085
1701528119.949,19.609,19.609,-19.609,0.004,0.0032,-0.008400000000000001,0.035,0.023,-0.101
1701528119.9889998,19.609,19.609,-19.609,0.0004,0.0037,-0.0014,0.045,0.023,-0.10400000000000001
1701528120.029,19.609,19.609,-19.609,0.0004,0.0026000000000000003,0.0005,0.051000000000000004,0.024,-0.095
1701528120.069,19.609,19.609,-19.609,0.0014,0.0004,-0.001,0.049,0.026000000000000002,-0.105
1701528120.109,19.609,19.609,-19.609,0.0016,0.0026000000000000003,0.0,0.047,0.02,-0.106
1701528120.149,19.609,19.609,-19.609,0.0009000000000000001,0.0048000000000000004,0.0004,0.039,0.022,-0.116
1701528120.189,19.609,19.609,-19.609,0.0005,0.0032,-0.0047,0.029,0.017,-0.131
1701528120.2289999,19.609,19.609,-19.609,0.0005,0.005,0.0009000000000000001,0.028,0.009000000000000001,-0.131
1701528120.269,19.609,19.609,-19.609,-0.0001,0.0014,0.0014,0.023,0.017,-0.125
1701528120.309,19.609,19.609,-19.609,0.0017000000000000001,0.0032,-0.0109,0.015,0.02,-0.114
1701528120.349,19.609,19.609,-19.609,0.0028,0.0026000000000000003,0.0053,0.013000000000000001,0.026000000000000002,-0.097
1701528120.389,19.609,19.609,-19.609,-0.0007,0.0012000000000000001,-0.007500000000000001,0.019,0.04,-0.09
1701528120.429,19.609,19.609,-19.609,0.0019,0.0029000000000000002,0.0007,0.011,0.055,-0.069
1701528120.4689999,19.609,19.609,-19.609,0.0026000000000000003,0.0024000000000000002,-0.0045000000000000005,0.015,0.065,-0.067
1701528120.509,19.609,19.609,-19.609,-0.0004,0.0036000000000000003,0.0031000000000000003,0.006,0.078,-0.063
1701528120.549,19.609,19.609,-19.609,0.00030000000000000003,0.0002,-0.0114,0.01,0.08700000000000001,-0.064
1701528120.589,19.609,19.609,-19.609,0.002,0.0034000000000000002,0.0064,0.012,0.085,-0.057
1701528120.629,19.609,19.609,-19.609,0.0004,0.0014,0.005200000000000001,-0.002,0.088,-0.046
1701528120.669,19.609,19.609,-19.609,0.0004,0.001,0.0039000000000000003,-0.007,0.088,-0.048
1701528120.7089999,19.609,19.609,-19.609,0.0025,0.001,-0.016900000000000002,-0.016,0.077,-0.054
1701528120.749,19.609,19.609,-19.609,0.0015,0.0014,0.0031000000000000003,-0.017,0.075,-0.056
1701528120.789,19.609,19.609,-19.609,0.0037,0.0023,-0.0011,-0.021,0.085,-0.059000000000000004
1701528120.829,19.609,19.609,-19.609,0.0005,0.0022,0.0,-0.023,0.089,-0.078
1701528120.869,19.609,19.609,-19.609,0.0001,0.0022,-0.0021000000000000003,-0.032,0.08600000000000001,-0.076
1701528120.909,19.609,19.609,-19.609,0.0012000000000000001,0.0048000000000000004,-0.0005,-0.018000000000000002,0.08,-0.079
1701528120.949,19.609,19.609,-19.609,0.0028,0.0028,0.0011,-0.013000000000000001,0.079,-0.067
1701528120.989,19.609,19.609,-19.609,-0.0004,0.0021000000000000003,0.0032,0.018000000000000002,0.058,-0.059000000000000004
1701528121.029,19.609,19.609,-19.609,0.0014,0.0034000000000000002,-0.0118,0.024,0.051000000000000004,-0.056
1701528121.069,19.609,19.609,-19.609,-0.0013000000000000002,0.0035,0.007,0.019,0.06,-0.056
1701528121.109,19.609,19.609,-19.609,-0.0006000000000000001,0.004200000000000001,0.0036000000000000003,0.018000000000000002,0.046,-0.048
1701528121.149,19.609,19.609,-19.609,0.0017000000000000001,0.0029000000000000002,-0.0031000000000000003,0.035,0.03,-0.058
1701528121.189,19.609,19.609,-19.609,0.0025,0.0029000000000000002,-0.0025,0.003,0.029,-0.064
1701528121.229,19.609,19.609,-19.609,-0.001,0.0045000000000000005,0.0046,0.0,-0.004,-0.096
1701528121.269,19.609,19.609,-19.609,0.0009000000000000001,0.0041,0.0012000000000000001,0.0,0.001,-0.101
1701528121.309,19.609,19.609,-19.609,0.0009000000000000001,0.0043,0.002,-0.007,-0.027,-0.10400000000000001
1701528121.349,19.609,19.609,-19.609,0.0002,0.0023,-0.0051,-0.031,-0.055,-0.115
1701528121.389,19.609,19.609,-19.609,0.0018000000000000002,0.0021000000000000003,-0.0006000000000000001,0.004,-0.057,-0.114
1701528121.429,19.609,19.609,-19.609,0.0014,0.0032,-0.008700000000000001,0.005,-0.055,-0.111
1701528121.469,19.609,19.609,-19.609,0.001,0.0036000000000000003,0.0019,0.016,-0.043000000000000003,-0.115
1701528121.509,19.609,19.609,-19.609,-0.0007,0.0056,-0.0083,-0.007,-0.061,-0.11
1701528121.549,19.609,19.609,-19.609,-0.002,0.0009000000000000001,0.0028,-0.016,-0.045,-0.106
1701528121.589,19.609,19.609,-19.609,-0.0006000000000000001,0.0051,-0.0008,-0.013000000000000001,-0.049,-0.117
1701528121.629,19.609,19.609,-19.609,0.0,0.0032,-0.0038,-0.012,-0.049,-0.107
1701528121.669,19.609,19.609,-19.609,0.0006000000000000001,0.0046,-0.0036000000000000003,-0.011,-0.054,-0.114
1701528121.709,19.609,19.609,-19.609,0.0008,0.0029000000000000002,0.0023,-0.005,-0.067,-0.109
1701528121.749,19.609,19.609,-19.609,0.0,0.0038,0.0014,-0.01,-0.041,-0.122
1701528121.789,19.609,19.609,-19.609,0.0008,0.0043,-0.0028,-0.004,-0.039,-0.13
1701528121.829,19.609,19.609,-19.609,-0.0004,0.003,0.0,-0.007,-0.051000000000000004,-0.11800000000000001
1701528121.869,19.609,19.609,-19.609,-0.0001,0.0013000000000000002,0.0022,-0.015,-0.047,-0.115
1701528121.909,19.609,19.609,-19.609,0.0006000000000000001,0.0006000000000000001,0.0039000000000000003,-0.013000000000000001,-0.04,-0.113
1701528121.949,19.609,19.609,-19.609,-0.002,0.0026000000000000003,-0.0039000000000000003,-0.009000000000000001,-0.038,-0.114
1701528121.9889998,19.609,19.609,-19.609,0.0017000000000000001,0.004,-0.0037,-0.007,-0.038,-0.109
1701528122.029,19.609,19.609,-19.609,0.0006000000000000001,0.0026000000000000003,-0.0019,-0.007,-0.044,-0.106
1701528122.069,19.609,19.609,-19.609,0.0014,0.0026000000000000003,0.0034000000000000002,-0.014,-0.04,-0.10300000000000001
1701528122.109,19.609,19.609,-19.609,0.0013000000000000002,0.001,-0.002,-0.008,-0.041,-0.099
1701528122.149,19.609,19.609,-19.609,0.0011,0.0038,-0.0029000000000000002,0.0,-0.051000000000000004,-0.095
1701528122.189,19.609,19.609,-19.609,0.0032,0.0022,-0.0077,-0.008,-0.051000000000000004,-0.10400000000000001
1701528122.2289999,19.609,19.609,-19.609,0.0018000000000000002,0.0017000000000000001,-0.004200000000000001,0.001,-0.054,-0.1
1701528122.269,19.609,19.609,-19.609,0.0005,0.0005,-0.00030000000000000003,0.004,-0.052000000000000005,-0.093
1701528122.309,19.609,19.609,-19.609,0.002,0.0027,0.0047,0.003,-0.04,-0.10300000000000001
1701528122.349,19.609,19.609,-19.609,0.0022,0.004200000000000001,-0.0108,-0.01,-0.044,-0.098
1701528122.389,19.609,19.609,-19.609,0.0026000000000000003,0.0031000000000000003,-0.0095,-0.01,-0.045,-0.093
1701528122.429,19.609,19.609,-19.609,0.0025,0.001,-0.0021000000000000003,-0.007,-0.05,-0.10400000000000001
1701528122.4689999,19.609,19.609,-19.609,0.0037,0.0,-0.0017000000000000001,-0.005,-0.059000000000000004,-0.10400000000000001
1701528122.509,19.609,19.609,-19.609,0.0008,0.002,0.0,-0.001,-0.052000000000000005,-0.10300000000000001
1701528122.549,19.609,19.609,-19.609,0.003,0.0031000000000000003,0.0029000000000000002,-0.006,-0.059000000000000004,-0.101
1701528122.589,19.609,19.609,-19.609,-0.0006000000000000001,0.0026000000000000003,-0.0046,0.0,-0.051000000000000004,-0.10400000000000001
1701528122.629,19.609,19.609,-19.609,0.00030000000000000003,0.0025,-0.006200000000000001,-0.011,-0.052000000000000005,-0.10300000000000001
1701528122.669,19.609,19.609,-19.609,0.0002,0.0029000000000000002,0.0023,0.0,-0.044,-0.096
1701528122.7089999,19.609,19.609,-19.609,0.0031000000000000003,0.0021000000000000003,-0.0059,0.007,-0.044,-0.10300000000000001
1701528122.749,19.609,19.609,-19.609,0.0017000000000000001,0.0023,-0.0039000000000000003,0.007,-0.052000000000000005,-0.106
1701528122.789,19.609,19.609,-19.609,0.0,0.0022,0.0001,0.004,-0.053,-0.10300000000000001
1701528122.829,19.609,19.609,-19.609,0.0004,0.0015,-0.0007,0.0,-0.052000000000000005,-0.10400000000000001
1701528122.869,19.609,19.609,-19.609,0.0023,0.0026000000000000003,-0.004200000000000001,-0.009000000000000001,-0.038,-0.10300000000000001
1701528122.909,19.609,19.609,-19.609,-0.0006000000000000001,0.0048000000000000004,0.0011,-0.008,-0.08700000000000001,-0.096
1701528122.949,19.609,19.609,-19.609,-0.0024000000000000002,0.0012000000000000001,-0.004,-0.01,-0.039,-0.106
1701528122.989,19.609,19.609,-19.609,0.0018000000000000002,0.0021000000000000003,0.00030000000000000003,-0.01,-0.033,-0.10400000000000001
1701528123.029,19.609,19.609,-19.609,0.0004,0.0012000000000000001,-0.00030000000000000003,-0.005,-0.034,-0.10200000000000001
1701528123.069,19.609,19.609,-19.609,0.0015,0.0041,0.0022,-0.002,-0.034,-0.094
1701528123.109,19.609,19.609,-19.609,0.0017000000000000001,0.0045000000000000005,0.0006000000000000001,0.0,-0.032,-0.10200000000000001
1701528123.149,19.609,19.609,-19.609,-0.0004,0.0032,-0.0059,-0.002,-0.034,-0.096
1701528123.189,19.609,19.609,-19.609,0.0008,0.0006000000000000001,-0.0041,-0.027,-0.038,-0.089
1701528123.229,19.609,19.609,-19.609,-0.0011,0.006200000000000001,-0.0028,-0.004,-0.051000000000000004,-0.10200000000000001
1701528123.269,19.609,19.609,-19.609,0.0006000000000000001,0.0036000000000000003,-0.0014,-0.003,-0.049,-0.097
1701528123.309,19.609,19.609,-19.609,-0.0014,0.0027,-0.0064,-0.006,-0.048,-0.10200000000000001
1701528123.349,19.609,19.609,-19.609,0.0009000000000000001,0.0048000000000000004,-0.0012000000000000001,-0.004,-0.049,-0.094
1701528123.389,19.609,19.609,-19.609,-0.0006000000000000001,0.0014,0.0025,-0.007,-0.042,-0.107
1701528123.429,19.609,19.609,-19.609,0.0031000000000000003,0.0039000000000000003,-0.0183,-0.001,-0.042,-0.107
1701528123.469,19.609,19.609,-19.609,0.0001,0.0019,0.014700000000000001,0.005,-0.047,-0.098
1701528123.509,19.609,19.609,-19.609,0.0014,0.0035,-0.005200000000000001,0.008,-0.049,-0.109
1701528123.549,19.609,19.609,-19.609,0.0021000000000000003,0.0021000000000000003,-0.006200000000000001,0.0,-0.053,-0.10400000000000001
1701528123.589,19.609,19.609,-19.609,0.0021000000000000003,0.0031000000000000003,-0.0033,-0.003,-0.053,-0.107
1701528123.629,19.609,19.609,-19.609,0.0004,0.0033,0.015300000000000001,-0.005,-0.047,-0.108
1701528123.669,19.609,19.609,-19.609,0.0027,0.0014,-0.0031000000000000003,-0.008,-0.056,-0.11
1701528123.709,19.609,19.609,-19.609,-0.0021000000000000003,0.0053,-0.0038,-0.003,-0.048,-0.106
1701528123.749,19.609,19.609,-19.609,0.0012000000000000001,0.0018000000000000002,0.0035,-0.009000000000000001,-0.042,-0.098
1701528123.789,19.609,19.609,-19.609,0.0011,0.0018000000000000002,0.0017000000000000001,0.0,-0.048,-0.098
1701528123.829,19.609,19.609,-19.609,0.0012000000000000001,0.0035,-0.0033,-0.01,-0.045,-0.108
1701528123.869,19.609,19.609,-19.609,0.0009000000000000001,0.0016,-0.0026000000000000003,0.002,-0.053,-0.099
1701528123.909,19.609,19.609,-19.609,-0.0009000000000000001,0.0019,-0.001,0.004,-0.045,-0.098
1701528123.949,19.609,19.609,-19.609,0.0021000000000000003,0.0006000000000000001,-0.0044,-0.004,-0.039,-0.10300000000000001
1701528123.9889998,19.609,19.609,-19.609,0.0001,0.0017000000000000001,-0.0035,-0.016,-0.043000000000000003,-0.101
1701528124.029,19.609,19.609,-19.609,-0.0005,0.0004,-0.0085,-0.01,-0.047,-0.10300000000000001
1701528124.069,19.609,19.609,-19.609,0.0034000000000000002,0.0036000000000000003,0.0025,-0.013000000000000001,-0.047,-0.108
1701528124.109,19.609,19.609,-19.609,0.0009000000000000001,0.0034000000000000002,0.013900000000000001,-0.005,-0.046,-0.10300000000000001
1701528124.149,19.609,19.609,-19.609,-0.0021000000000000003,0.0031000000000000003,0.0109,-0.007,-0.04,-0.101
1701528124.189,19.609,19.609,-19.609,-0.0001,0.0016,0.0026000000000000003,-0.004,-0.035,-0.097
1701528124.2289999,19.609,19.609,-19.609,0.0,0.0037,-0.0032,-0.005,-0.036000000000000004,-0.107
1701528124.269,19.609,19.609,-19.609,-0.0007,0.003,-0.0032,0.0,-0.032,-0.095
1701528124.309,19.609,19.609,-19.609,-0.0002,0.0017000000000000001,-0.0048000000000000004,0.0,-0.036000000000000004,-0.096
1701528124.349,19.609,19.609,-19.609,0.0006000000000000001,0.005,-0.0021000000000000003,-0.004,-0.041,-0.106
1701528124.389,19.609,19.609,-19.609,0.00030000000000000003,0.0016,0.002,-0.009000000000000001,-0.039,-0.101
1701528124.429,19.609,19.609,-19.609,0.0014,0.0039000000000000003,-0.0011,-0.011,-0.045,-0.101
1701528124.4689999,19.609,19.609,-19.609,0.0004,0.0025,-0.0017000000000000001,-0.014,-0.041,-0.098
1701528124.509,19.609,19.609,-19.609,0.0001,0.0031000000000000003,-0.0008,-0.007,-0.033,-0.1
1701528124.549,19.609,19.609,-19.609,0.0023,0.0025,0.0,0.0,-0.036000000000000004,-0.098
1701528124.589,19.609,19.609,-19.609,-0.0015,0.0038,0.0037,0.0,-0.029,-0.099
1701528124.629,19.609,19.609,-19.609,-0.0007,0.0032,-0.008700000000000001,0.001,-0.038,-0.105
1701528124.669,19.609,19.609,-19.609,-0.0014,0.0043,-0.0024000000000000002,-0.002,-0.044,-0.101
1701528124.7089999,19.609,19.609,-19.609,0.00030000000000000003,0.0048000000000000004,-0.0073,0.002,-0.048,-0.093
1701528124.749,19.609,19.609,-19.609,0.0016,0.004,0.0034000000000000002,-0.005,-0.05,-0.105
1701528124.789,19.609,19.609,-19.609,-0.0005,0.0016,-0.0021000000000000003,-0.005,-0.051000000000000004,-0.1
1701528124.829,19.609,19.609,-19.609,0.001,0.0044,-0.0053,-0.006,-0.049,-0.092
1701528124.869,19.609,19.609,-19.609,-0.0017000000000000001,0.0014,-0.0068000000000000005,0.002,-0.058,-0.10200000000000001
1701528124.909,19.609,19.609,-19.609,0.0021000000000000003,0.0037,-0.0002,0.001,-0.047,-0.10400000000000001
1701528124.949,19.609,19.609,-19.609,0.0,0.0047,-0.0037,-0.004,-0.061,-0.10400000000000001
1701528124.989,19.609,19.609,-19.609,-0.0036000000000000003,0.0036000000000000003,-0.0012000000000000001,0.029,-0.044,-0.10400000000000001
1701528125.029,19.609,19.609,-19.609,0.0034000000000000002,0.0025,-0.0006000000000000001,-0.004,-0.025,-0.106
1701528125.069,19.609,19.609,-19.609,0.0018000000000000002,0.0023,-0.0032,-0.014,-0.04,-0.10300000000000001
1701528125.109,19.609,19.609,-19.609,-0.0009000000000000001,0.0017000000000000001,0.005,-0.006,-0.047,-0.107
1701528125.149,19.609,19.609,-19.609,0.0034000000000000002,0.0004,0.0045000000000000005,-0.012,-0.045,-0.108
1701528125.189,19.609,19.609,-19.609,0.0019,0.0029000000000000002,-0.007500000000000001,-0.013000000000000001,-0.046,-0.10300000000000001
1701528125.229,19.609,19.609,-19.609,-0.001,0.0035,-0.0029000000000000002,-0.009000000000000001,-0.056,-0.109
1701528125.269,19.609,19.609,-19.609,0.0025,0.0026000000000000003,-0.0022,-0.01,-0.051000000000000004,-0.117
1701528125.309,19.609,19.609,-19.609,0.0009000000000000001,0.0032,-0.0001,-0.009000000000000001,-0.051000000000000004,-0.107
1701528125.349,19.609,19.609,-19.609,-0.0006000000000000001,0.0028,-0.002,-0.016,-0.034,-0.10300000000000001
1701528125.389,19.609,19.609,-19.609,-0.0015,0.003,0.0025,-0.013000000000000001,-0.034,-0.109
1701528125.429,19.609,19.609,-19.609,0.0005,0.002,-0.006200000000000001,-0.01,-0.036000000000000004,-0.113
1701528125.469,19.609,19.609,-19.609,0.0012000000000000001,0.0021000000000000003,0.0031000000000000003,-0.005,-0.049,-0.112
1701528125.509,19.609,19.609,-19.609,0.0026000000000000003,0.0021000000000000003,-0.0054,-0.009000000000000001,-0.036000000000000004,-0.10300000000000001
1701528125.549,19.609,19.609,-19.609,0.0,0.0005,0.004,-0.012,-0.03,-0.11
1701528125.589,19.609,19.609,-19.609,-0.0012000000000000001,0.003,0.0004,-0.028,-0.034,-0.094
1701528125.629,19.609,19.609,-19.609,-0.00030000000000000003,0.0039000000000000003,0.0,-0.029,-0.042,-0.096
1701528125.669,19.609,19.609,-19.609,-0.0021000000000000003,0.003,0.0016,-0.023,-0.055,-0.106
1701528125.709,19.609,19.609,-19.609,-0.0039000000000000003,0.0029000000000000002,0.0007,-0.018000000000000002,-0.047,-0.107
1701528125.749,19.609,19.609,-19.609,0.0028,0.0021000000000000003,0.0004,-0.028,-0.054,-0.108
1701528125.789,19.609,19.609,-19.609,0.0034000000000000002,0.005,-0.005,-0.027,-0.06,-0.107
1701528125.829,19.609,19.609,-19.609,-0.0004,0.0057,0.0058000000000000005,-0.033,-0.063,-0.116
1701528125.869,19.609,19.609,-19.609,0.0028,0.0015,0.0002,-0.035,-0.064,-0.124
1701528125.909,19.609,19.609,-19.609,0.0006000000000000001,0.0021000000000000003,0.0165,-0.034,-0.07,-0.12
1701528125.949,19.609,19.609,-19.609,-0.0009000000000000001,0.0021000000000000003,0.0313,-0.037,-0.07200000000000001,-0.129
1701528125.9889998,19.609,19.609,-19.609,0.00030000000000000003,0.004,-0.0002,-0.045,-0.069,-0.128
1701528126.029,19.609,19.609,-19.609,0.0,0.0049,-0.0051,-0.051000000000000004,-0.063,-0.122
1701528126.069,19.609,19.609,-19.609,-0.00030000000000000003,0.0013000000000000002,-0.010400000000000001,-0.062,-0.073,-0.122
1701528126.109,19.609,19.609,-19.609,0.0,0.0036000000000000003,0.0024000000000000002,-0.07200000000000001,-0.089,-0.126
1701528126.149,19.609,19.609,-19.609,0.0014,0.0029000000000000002,0.0014,-0.069,-0.101,-0.126
1701528126.189,19.609,19.609,-19.609,0.0014,0.0026000000000000003,0.0046,-0.067,-0.109,-0.127
1701528126.2289999,19.609,19.609,-19.609,-0.0004,0.0039000000000000003,-0.0035,-0.056,-0.128,-0.122
1701528126.269,19.609,19.609,-19.609,0.0035,0.0026000000000000003,0.0013000000000000002,-0.045,-0.14,-0.11900000000000001
1701528126.309,19.609,19.609,-19.609,-0.0004,0.0014,-0.0013000000000000002,-0.064,-0.166,-0.094
1701528126.349,19.609,19.609,-19.609,0.0013000000000000002,0.0025,-0.0004,-0.07100000000000001,-0.243,-0.027
1701528126.389,19.609,19.609,-19.609,0.004200000000000001,0.0018000000000000002,-0.001,-0.114,-0.277,0.035
1701528126.429,19.609,19.609,-19.609,0.001,0.0037,-0.0056,-0.146,-0.279,0.064
1701528126.4689999,19.609,19.609,-19.609,0.0001,0.002,0.0009000000000000001,-0.153,-0.281,0.061
1701528126.509,19.609,19.609,-19.609,-0.0006000000000000001,0.0012000000000000001,0.0015,-0.2,-0.28200000000000003,0.064
1701528126.549,19.609,19.609,-19.609,0.0032,0.0019,0.0,-0.20600000000000002,-0.219,0.068
1701528126.589,19.609,19.609,-19.609,0.0006000000000000001,0.0034000000000000002,-0.0025,-0.215,-0.225,0.1
1701528126.629,19.609,19.609,-19.609,-0.0005,0.0004,0.0001,-0.233,-0.185,0.125
1701528126.669,19.609,19.609,-19.609,0.0034000000000000002,0.0034000000000000002,0.0028,-0.234,-0.161,0.123
1701528126.7089999,19.609,19.609,-19.609,0.0018000000000000002,0.0026000000000000003,-0.0031000000000000003,-0.217,-0.145,0.098
1701528126.749,19.609,19.609,-19.609,0.0029000000000000002,0.0036000000000000003,-0.0024000000000000002,-0.214,-0.14,0.099
1701528126.789,19.609,19.609,-19.609,0.0028,0.0018000000000000002,-0.0047,-0.2,-0.14300000000000002,0.073
1701528126.829,19.609,19.609,-19.609,0.0015,0.0029000000000000002,0.0001,-0.198,-0.145,0.025
1701528126.869,19.609,19.609,-19.609,0.0034000000000000002,0.0023,-0.0007,-0.18,-0.131,0.013000000000000001
1701528126.909,19.609,19.609,-19.609,-0.0009000000000000001,0.0027,0.0041,-0.182,-0.145,0.007
1701528126.949,19.609,19.609,-19.609,0.0006000000000000001,0.0017000000000000001,-0.0076,-0.09,-0.14100000000000001,-0.047
1701528126.989,19.609,19.609,-19.609,0.0012000000000000001,0.0009000000000000001,-0.0023,-0.054,-0.121,-0.083
1701528127.029,19.609,19.609,-19.609,0.0009000000000000001,0.0012000000000000001,0.006200000000000001,-0.054,-0.114,-0.1
1701528127.069,19.609,19.609,-19.609,0.002,0.0023,0.004200000000000001,-0.074,-0.111,-0.115
1701528127.109,19.609,19.609,-19.609,0.0014,0.0017000000000000001,-0.0017000000000000001,-0.099,-0.092,-0.112
1701528127.149,19.609,19.609,-19.609,0.0002,0.0028,-0.0032,-0.093,-0.091,-0.10200000000000001
1701528127.189,19.609,19.609,-19.609,0.002,0.0016,0.0,-0.088,-0.084,-0.097
1701528127.229,19.609,19.609,-19.609,0.0,0.0015,-0.0046,-0.07200000000000001,-0.058,-0.111
1701528127.269,19.609,19.609,-19.609,0.00030000000000000003,0.004,0.0021000000000000003,-0.056,-0.054,-0.11900000000000001
1701528127.309,19.609,19.609,-19.609,0.0022,-0.0006000000000000001,-0.0002,-0.027,-0.059000000000000004,-0.135
1701528127.349,19.609,19.609,-19.609,0.0004,0.0029000000000000002,0.0001,0.002,-0.054,-0.14
1701528127.389,19.609,19.609,-19.609,0.0036000000000000003,0.0059,-0.0015,-0.006,-0.041,-0.147
1701528127.429,19.609,19.609,-19.609,0.0027,0.0009000000000000001,-0.0006000000000000001,0.001,-0.046,-0.138
1701528127.469,19.609,19.609,-19.609,0.0022,0.0035,0.0009000000000000001,-0.009000000000000001,-0.035,-0.135
1701528127.509,19.609,19.609,-19.609,0.0011,0.0018000000000000002,-0.0006000000000000001,-0.017,-0.031,-0.139
1701528127.549,19.609,19.609,-19.609,0.0,0.0019,-0.0004,-0.015,-0.039,-0.135
1701528127.589,19.609,19.609,-19.609,0.0019,0.0016,-0.0027,-0.021,-0.034,-0.135
1701528127.629,19.609,19.609,-19.609,-0.0007,0.0023,0.0057,-0.023,-0.04,-0.131
1701528127.669,19.609,19.609,-19.609,0.0016,0.0023,0.0006000000000000001,-0.015,-0.047,-0.12
1701528127.709,19.609,19.609,-19.609,0.0016,0.0014,-0.0123,-0.014,-0.051000000000000004,-0.124
1701528127.749,19.609,19.609,-19.609,0.0009000000000000001,0.0026000000000000003,-0.001,-0.019,-0.051000000000000004,-0.128
1701528127.789,19.609,19.609,-19.609,-0.0006000000000000001,0.0,0.027,-0.016,-0.043000000000000003,-0.132
1701528127.829,19.609,19.609,-19.609,-0.0008,0.0024000000000000002,-0.0212,-0.006,-0.033,-0.136
1701528127.869,19.609,19.609,-19.609,0.0008,0.0016,0.0006000000000000001,0.0,-0.02,-0.14300000000000002
1701528127.909,19.609,19.609,-19.609,0.0001,0.0009000000000000001,0.0008,-0.003,-0.03,-0.121
1701528127.949,19.609,19.609,-19.609,0.0037,0.0009000000000000001,-0.0094,0.0,-0.044,-0.112
1701528127.9889998,19.609,19.609,-19.609,-0.0006000000000000001,0.0029000000000000002,0.0167,-0.012,-0.036000000000000004,-0.109
1701528128.029,19.609,19.609,-19.609,0.00030000000000000003,0.0026000000000000003,0.0025,-0.015,-0.023,-0.10400000000000001
1701528128.069,19.609,19.609,-19.609,0.0064,0.0034000000000000002,-0.0036000000000000003,-0.008,-0.036000000000000004,-0.107
1701528128.109,19.609,19.609,-19.609,0.0013000000000000002,0.0024000000000000002,0.0012000000000000001,-0.003,-0.049,-0.108
1701528128.149,19.609,19.609,-19.609,0.0046,0.0012000000000000001,-0.0035,-0.003,-0.041,-0.10200000000000001
1701528128.189,19.609,19.609,-19.609,0.0017000000000000001,0.0021000000000000003,0.006,-0.005,-0.042,-0.107
1701528128.2289999,19.609,19.609,-19.609,0.0028,0.0029000000000000002,0.0077,0.011,-0.046,-0.097
1701528128.269,19.609,19.609,-19.609,0.0007,0.0029000000000000002,0.0057,0.002,-0.032,-0.093
1701528128.309,19.609,19.609,-19.609,0.0018000000000000002,0.0021000000000000003,0.0004,-0.001,-0.03,-0.10300000000000001
1701528128.349,19.609,19.609,-19.609,0.0,0.0014,0.001,0.003,-0.029,-0.10400000000000001
1701528128.389,19.609,19.609,-19.609,0.0012000000000000001,0.0014,0.0029000000000000002,0.0,-0.029,-0.106
1701528128.429,19.609,19.609,-19.609,0.0019,0.0026000000000000003,-0.0017000000000000001,-0.002,-0.026000000000000002,-0.11
1701528128.4689999,19.609,19.609,-19.609,0.0009000000000000001,0.0031000000000000003,0.0018000000000000002,-0.003,-0.016,-0.10200000000000001
1701528128.509,19.609,19.609,-19.609,0.0019,0.0028,0.0012000000000000001,-0.008,-0.033,-0.096
1701528128.549,19.609,19.609,-19.609,0.004,0.0011,0.0004,-0.007,-0.041,-0.097
1701528128.589,19.609,19.609,-19.609,0.0,0.0015,0.0036000000000000003,-0.005,-0.04,-0.10200000000000001
1701528128.629,19.609,19.609,-19.609,-0.0009000000000000001,0.0016,-0.005200000000000001,0.003,-0.041,-0.10200000000000001
1701528128.669,19.609,19.609,-19.609,0.0032,0.0019,0.006500000000000001,0.0,-0.047,-0.1
1701528128.7089999,19.609,19.609,-19.609,0.0006000000000000001,0.0025,-0.00030000000000000003,-0.012,-0.023,-0.096
1701528128.749,19.609,19.609,-19.609,0.0016,0.0029000000000000002,0.0047,-0.018000000000000002,-0.031,-0.097
1701528128.789,19.609,19.609,-19.609,0.0005,0.0012000000000000001,0.0017000000000000001,-0.006,-0.029,-0.094
1701528128.829,19.609,19.609,-19.609,0.0017000000000000001,0.0039000000000000003,-0.0027,-0.007,-0.015,-0.10200000000000001
1701528128.869,19.609,19.609,-19.609,0.003,0.001,0.0051,0.009000000000000001,0.005,-0.114
1701528128.909,19.609,19.609,-19.609,0.0029000000000000002,0.0006000000000000001,-0.0031000000000000003,0.006,0.005,-0.115
1701528128.949,19.609,19.609,-19.609,-0.0027,0.0012000000000000001,0.0006000000000000001,0.013000000000000001,0.016,-0.114
1701528128.989,19.609,19.609,-19.609,-0.0006000000000000001,0.0006000000000000001,-0.0017000000000000001,0.028,0.03,-0.123
1701528129.029,19.609,19.609,-19.609,0.0038,0.0014,0.0043,-0.001,0.035,-0.132
