timestamp,acc_x,acc_y,acc_z,magn_x,magn_y,magn_z,gyro_x,gyro_y,gyro_z
1701525718.31,19.609,19.609,-19.609,-0.0001,-0.0006000000000000001,-0.0076,0.04,0.14,-0.107
1701525718.35,19.609,19.609,-19.609,-0.0018000000000000002,0.0,0.0129,0.051000000000000004,0.131,-0.115
1701525718.39,19.609,19.609,-19.609,-0.0014,0.001,-0.0458,0.05,0.098,-0.116
1701525718.43,19.609,19.609,-19.609,0.0005,0.0005,0.0442,0.03,0.111,-0.077
1701525718.47,19.609,19.609,-19.609,-0.0001,-0.0004,-0.024900000000000002,0.052000000000000005,0.149,-0.08
1701525718.51,19.609,19.609,-19.609,-0.0018000000000000002,0.00030000000000000003,0.0212,0.146,0.192,-0.114
1701525718.55,19.609,19.609,-19.609,-0.0025,0.0006000000000000001,-0.0132,0.20500000000000002,0.201,-0.125
1701525718.59,19.609,19.609,-19.609,-0.0023,0.0011,-0.0531,0.135,0.137,-0.094
1701525718.63,19.609,19.609,-19.609,-0.0004,-0.00030000000000000003,-0.027100000000000003,0.05,0.097,-0.073
1701525718.67,19.609,19.609,-19.609,-0.0012000000000000001,0.0008,0.0799,-0.046,0.037,-0.053
1701525718.71,19.609,19.609,-19.609,-0.0007,-0.0008,-0.034300000000000004,-0.067,-0.02,-0.048
1701525718.75,19.609,19.609,-19.609,-0.0002,0.0,0.0238,-0.08,-0.029,-0.057
1701525718.79,19.609,19.609,-19.609,0.001,-0.0016,-0.0309,-0.094,-0.042,-0.029
1701525718.83,19.609,19.609,-19.609,-0.0026000000000000003,0.0012000000000000001,0.028900000000000002,-0.146,-0.097,0.009000000000000001
1701525718.87,19.609,19.609,-19.609,0.0007,0.0005,0.0051,-0.243,-0.11,0.10400000000000001
1701525718.9099998,19.609,19.609,-19.609,-0.0004,0.0001,0.0037,-0.395,-0.182,0.249
1701525718.95,19.609,19.609,-19.609,0.0015,-0.0018000000000000002,-0.0427,-0.419,-0.201,0.34700000000000003
1701525718.99,19.609,19.609,-19.609,0.0002,-0.0004,0.039400000000000004,-0.401,-0.256,0.543
1701525719.03,19.609,19.609,-19.609,0.00030000000000000003,0.0014,0.0086,-0.342,-0.37,0.649
1701525719.07,19.609,19.609,-19.609,0.0002,-0.0006000000000000001,-0.0409,-0.123,-0.28600000000000003,0.643
1701525719.11,19.609,19.609,-19.609,0.0018000000000000002,0.0006000000000000001,0.033,-0.028,-0.182,0.383
1701525719.1499999,19.609,19.609,-19.609,0.0006000000000000001,0.0006000000000000001,0.0122,0.10200000000000001,-0.158,0.158
1701525719.19,19.609,19.609,-19.609,0.0051,-0.00030000000000000003,0.0025,0.122,-0.07200000000000001,-0.07100000000000001
1701525719.23,19.609,19.609,-19.609,-0.0006000000000000001,0.0021000000000000003,-0.018600000000000002,0.131,-0.023,-0.156
1701525719.27,19.609,19.609,-19.609,-0.0025,0.0002,-0.0014,0.054,-0.041,-0.165
1701525719.31,19.609,19.609,-19.609,-0.0001,0.0011,-0.0056,-0.003,-0.032,-0.161
1701525719.35,19.609,19.609,-19.609,-0.0006000000000000001,0.0034000000000000002,0.013600000000000001,-0.001,-0.023,-0.165
1701525719.3899999,19.609,19.609,-19.609,-0.0008,0.0012000000000000001,-0.0019,0.008,-0.028,-0.154
1701525719.43,19.609,19.609,-19.609,-0.0006000000000000001,0.0014,-0.05,0.034,-0.031,-0.139
1701525719.47,19.609,19.609,-19.609,-0.0015,0.0005,0.0413,0.047,-0.029,-0.128
1701525719.51,19.609,19.609,-19.609,-0.0009000000000000001,0.0023,-0.0296,0.085,-0.032,-0.134
1701525719.55,19.609,19.609,-19.609,-0.0019,0.001,0.028,0.111,-0.021,-0.162
1701525719.59,19.609,19.609,-19.609,-0.0018000000000000002,-0.0001,-0.0024000000000000002,0.133,-0.019,-0.192
1701525719.6299999,19.609,19.609,-19.609,0.0017000000000000001,0.0023,-0.0465,0.16,0.002,-0.228
1701525719.67,19.609,19.609,-19.609,0.00030000000000000003,0.0018000000000000002,0.0175,0.224,0.031,-0.291
1701525719.71,19.609,19.609,-19.609,0.0009000000000000001,0.0007,0.0155,0.47600000000000003,0.083,-0.42
1701525719.75,19.609,19.609,-19.609,0.0006000000000000001,0.00030000000000000003,-0.0432,0.718,0.275,-0.772
1701525719.79,19.609,19.609,-19.609,0.0037,0.0,0.038900000000000004,0.656,0.305,-0.868
1701525719.83,19.609,19.609,-19.609,0.0009000000000000001,0.0002,-0.0142,0.512,0.266,-0.8260000000000001
1701525719.87,19.609,19.609,-19.609,0.0018000000000000002,0.0005,-0.029400000000000003,0.467,0.193,-0.705
1701525719.91,19.609,19.609,-19.609,-0.0012000000000000001,0.0,0.037200000000000004,0.335,0.106,-0.662
1701525719.95,19.609,19.609,-19.609,0.0004,-0.0011,-0.0034000000000000002,0.182,0.105,-0.527
1701525719.99,19.609,19.609,-19.609,0.00030000000000000003,0.0,-0.0339,-0.02,0.089,-0.402
1701525720.03,19.609,19.609,-19.609,0.0011,0.0001,0.0224,-0.105,0.057,-0.317
1701525720.07,19.609,19.609,-19.609,0.0,-0.00030000000000000003,0.013000000000000001,-0.223,-0.038,-0.263
1701525720.11,19.609,19.609,-19.609,-0.0011,-0.0009000000000000001,0.0328,-0.281,-0.096,-0.20400000000000001
1701525720.15,19.609,19.609,-19.609,-0.0023,0.0008,-0.0181,-0.254,-0.065,-0.14300000000000002
1701525720.19,19.609,19.609,-19.609,0.0018000000000000002,-0.0004,0.0114,-0.179,-0.043000000000000003,-0.14100000000000001
1701525720.23,19.609,19.609,-19.609,-0.0004,0.0004,-0.0342,-0.11800000000000001,-0.03,-0.15
1701525720.27,19.609,19.609,-19.609,0.0018000000000000002,-0.0014,0.0112,-0.085,-0.014,-0.16
1701525720.31,19.609,19.609,-19.609,0.0017000000000000001,0.002,0.0089,-0.063,-0.008,-0.158
1701525720.35,19.609,19.609,-19.609,0.0005,0.00030000000000000003,0.0126,-0.08700000000000001,-0.021,-0.153
1701525720.39,19.609,19.609,-19.609,0.0019,0.0004,-0.0274,-0.081,-0.027,-0.139
1701525720.43,19.609,19.609,-19.609,0.00030000000000000003,-0.0002,0.0074,-0.089,-0.034,-0.11800000000000001
1701525720.47,19.609,19.609,-19.609,-0.0001,0.0008,-0.0216,-0.085,-0.031,-0.1
1701525720.51,19.609,19.609,-19.609,-0.0024000000000000002,0.0008,0.0459,-0.068,-0.037,-0.094
1701525720.55,19.609,19.609,-19.609,0.00030000000000000003,-0.0023,-0.051500000000000004,-0.051000000000000004,-0.032,-0.069
1701525720.59,19.609,19.609,-19.609,-0.0021000000000000003,0.0,0.0494,-0.031,-0.017,-0.083
1701525720.63,19.609,19.609,-19.609,-0.0009000000000000001,0.0009000000000000001,-0.031900000000000005,-0.025,-0.002,-0.097
1701525720.67,19.609,19.609,-19.609,-0.0007,0.0015,0.0073,-0.028,-0.011,-0.098
1701525720.71,19.609,19.609,-19.609,0.0027,0.0001,-0.0339,-0.026000000000000002,-0.013000000000000001,-0.09
1701525720.75,19.609,19.609,-19.609,-0.002,0.0001,0.0393,-0.027,-0.024,-0.106
1701525720.79,19.609,19.609,-19.609,0.0007,-0.0012000000000000001,-0.028300000000000002,-0.029,-0.011,-0.094
1701525720.83,19.609,19.609,-19.609,-0.0011,-0.002,0.0252,-0.028,0.015,-0.083
1701525720.87,19.609,19.609,-19.609,-0.0012000000000000001,-0.0029000000000000002,0.0126,-0.009000000000000001,0.049,-0.05
1701525720.9099998,19.609,19.609,-19.609,-0.0015,-0.002,-0.020300000000000002,0.017,0.012,-0.037
1701525720.95,19.609,19.609,-19.609,0.0007,0.0021000000000000003,0.006500000000000001,0.023,-0.04,-0.025
1701525720.99,19.609,19.609,-19.609,-0.0012000000000000001,-0.0014,-0.022500000000000003,0.023,-0.06,-0.001
1701525721.03,19.609,19.609,-19.609,-0.0027,-0.0014,0.0441,0.02,-0.094,0.018000000000000002
1701525721.07,19.609,19.609,-19.609,-0.0014,-0.0006000000000000001,-0.0264,-0.011,-0.123,0.063
1701525721.11,19.609,19.609,-19.609,0.0004,0.0009000000000000001,0.019700000000000002,-0.008,-0.135,0.088
1701525721.1499999,19.609,19.609,-19.609,-0.0015,0.0004,0.0064,0.009000000000000001,-0.111,0.082
1701525721.19,19.609,19.609,-19.609,-0.00030000000000000003,0.0,-0.041100000000000005,0.013000000000000001,-0.058,0.05
1701525721.23,19.609,19.609,-19.609,-0.0015,-0.0014,0.028800000000000003,0.006,-0.031,0.026000000000000002
1701525721.27,19.609,19.609,-19.609,0.0022,0.00030000000000000003,-0.039900000000000005,-0.013000000000000001,-0.016,-0.022
1701525721.31,19.609,19.609,-19.609,0.0005,0.0019,0.0362,-0.043000000000000003,-0.045,-0.08
1701525721.35,19.609,19.609,-19.609,-0.0005,-0.001,0.009300000000000001,-0.039,-0.038,-0.114
1701525721.3899999,19.609,19.609,-19.609,0.00030000000000000003,0.0007,-0.0429,-0.038,-0.039,-0.147
1701525721.43,19.609,19.609,-19.609,-0.0021000000000000003,-0.0013000000000000002,0.0349,-0.048,-0.065,-0.17
1701525721.47,19.609,19.609,-19.609,0.002,0.0015,0.0029000000000000002,-0.053,-0.074,-0.17400000000000002
1701525721.51,19.609,19.609,-19.609,-0.0006000000000000001,0.0026000000000000003,-0.0224,-0.038,-0.07200000000000001,-0.158
1701525721.55,19.609,19.609,-19.609,-0.0012000000000000001,-0.0035,-0.0531,-0.035,-0.076,-0.151
1701525721.59,19.609,19.609,-19.609,0.00030000000000000003,0.0,0.06570000000000001,-0.051000000000000004,-0.07200000000000001,-0.152
1701525721.6299999,19.609,19.609,-19.609,-0.0001,0.00030000000000000003,-0.0035,-0.062,-0.07,-0.17500000000000002
1701525721.67,19.609,19.609,-19.609,-0.0032,0.0004,-0.0335,-0.059000000000000004,-0.053,-0.167
1701525721.71,19.609,19.609,-19.609,-0.001,0.0007,0.0334,-0.033,-0.057,-0.198
1701525721.75,19.609,19.609,-19.609,0.0,-0.0006000000000000001,0.0041,-0.011,-0.029,-0.227
1701525721.79,19.609,19.609,-19.609,0.0015,0.0019,-0.054,0.085,0.076,-0.268
1701525721.83,19.609,19.609,-19.609,0.0011,0.0007,0.0649,0.159,0.108,-0.277
1701525721.87,19.609,19.609,-19.609,0.0014,-0.0007,0.052700000000000004,0.197,0.113,-0.245
1701525721.91,19.609,19.609,-19.609,0.0034000000000000002,0.0012000000000000001,-0.0006000000000000001,0.224,0.092,-0.24
1701525721.95,19.609,19.609,-19.609,-0.004,0.00030000000000000003,-0.028200000000000003,0.191,0.048,-0.199
1701525721.99,19.609,19.609,-19.609,-0.0024000000000000002,-0.0007,0.033,0.169,0.034,-0.17300000000000001
1701525722.03,19.609,19.609,-19.609,0.0001,-0.0004,-0.022500000000000003,0.092,-0.027,-0.151
1701525722.07,19.609,19.609,-19.609,-0.0013000000000000002,0.001,0.024200000000000003,0.003,-0.054,-0.13
1701525722.11,19.609,19.609,-19.609,-0.0002,0.0,-0.0257,-0.11800000000000001,-0.089,-0.11800000000000001
1701525722.15,19.609,19.609,-19.609,0.0009000000000000001,-0.0007,0.022600000000000002,-0.183,-0.111,-0.107
1701525722.19,19.609,19.609,-19.609,-0.0015,-0.001,-0.052000000000000005,-0.215,-0.128,-0.08700000000000001
1701525722.23,19.609,19.609,-19.609,-0.0005,-0.0005,0.054,-0.18,-0.129,-0.065
1701525722.27,19.609,19.609,-19.609,-0.001,0.0002,-0.0083,-0.091,-0.093,-0.037
1701525722.31,19.609,19.609,-19.609,-0.0006000000000000001,-0.0012000000000000001,-0.0351,-0.045,-0.115,-0.004
1701525722.35,19.609,19.609,-19.609,-0.0007,0.0006000000000000001,0.0429,0.05,-0.116,0.01
1701525722.39,19.609,19.609,-19.609,-0.0012000000000000001,0.0,-0.034800000000000005,0.058,-0.113,0.02
1701525722.43,19.609,19.609,-19.609,-0.0009000000000000001,0.0,-0.0325,0.082,-0.135,0.088
1701525722.47,19.609,19.609,-19.609,0.0007,-0.0017000000000000001,0.0726,0.093,-0.161,0.155
1701525722.51,19.609,19.609,-19.609,-0.0001,0.0012000000000000001,-0.047900000000000005,0.18,-0.153,0.192
1701525722.55,19.609,19.609,-19.609,-0.0019,0.0009000000000000001,0.0455,0.222,-0.156,0.158
1701525722.59,19.609,19.609,-19.609,0.0001,0.0,0.0038,0.196,-0.11800000000000001,0.088
1701525722.63,19.609,19.609,-19.609,-0.0031000000000000003,0.0,-0.006200000000000001,0.129,-0.07200000000000001,0.041
1701525722.67,19.609,19.609,-19.609,-0.0014,-0.0018000000000000002,-0.0339,0.038,-0.03,0.003
1701525722.71,19.609,19.609,-19.609,-0.0014,0.0004,0.035500000000000004,-0.014,0.032,-0.04
1701525722.75,19.609,19.609,-19.609,0.0,0.0017000000000000001,0.014100000000000001,-0.044,0.06,-0.09
1701525722.79,19.609,19.609,-19.609,-0.0021000000000000003,0.0007,-0.018500000000000003,-0.07,0.056,-0.124
1701525722.83,19.609,19.609,-19.609,0.0001,0.0002,0.024900000000000002,-0.094,0.073,-0.151
1701525722.87,19.609,19.609,-19.609,0.0009000000000000001,-0.001,-0.0363,-0.11,0.047,-0.163
1701525722.9099998,19.609,19.609,-19.609,-0.0025,0.0007,0.0315,-0.121,0.07100000000000001,-0.17
1701525722.95,19.609,19.609,-19.609,-0.0013000000000000002,0.002,-0.0512,-0.107,0.122,-0.156
1701525722.99,19.609,19.609,-19.609,0.00030000000000000003,0.0012000000000000001,0.0443,-0.066,0.115,-0.168
1701525723.03,19.609,19.609,-19.609,-0.0018000000000000002,0.0026000000000000003,-0.0201,-0.084,0.076,-0.184
1701525723.07,19.609,19.609,-19.609,-0.0012000000000000001,0.0,0.009000000000000001,-0.082,0.029,-0.186
1701525723.11,19.609,19.609,-19.609,0.0002,-0.0004,0.027700000000000002,-0.07200000000000001,0.018000000000000002,-0.182
1701525723.1499999,19.609,19.609,-19.609,0.0012000000000000001,-0.0015,-0.0269,-0.051000000000000004,0.027,-0.176
1701525723.19,19.609,19.609,-19.609,-0.001,-0.0001,0.0172,-0.015,0.036000000000000004,-0.17300000000000001
1701525723.23,19.609,19.609,-19.609,0.00030000000000000003,0.0007,-0.0449,-0.005,0.028,-0.167
1701525723.27,19.609,19.609,-19.609,-0.0019,0.0017000000000000001,0.045200000000000004,-0.015,0.025,-0.154
1701525723.31,19.609,19.609,-19.609,0.0015,-0.00030000000000000003,-0.043000000000000003,-0.019,0.008,-0.14300000000000002
1701525723.35,19.609,19.609,-19.609,0.00030000000000000003,0.0006000000000000001,0.037000000000000005,-0.031,0.039,-0.129
1701525723.3899999,19.609,19.609,-19.609,0.0008,-0.0007,-0.0165,-0.028,0.074,-0.124
1701525723.43,19.609,19.609,-19.609,-0.00030000000000000003,-0.0012000000000000001,0.0094,-0.026000000000000002,0.094,-0.113
1701525723.47,19.609,19.609,-19.609,-0.0007,0.0009000000000000001,0.0207,-0.017,0.08,-0.123
1701525723.51,19.609,19.609,-19.609,0.0,0.00030000000000000003,-0.0077,-0.021,0.06,-0.13
1701525723.55,19.609,19.609,-19.609,-0.0017000000000000001,-0.0012000000000000001,-0.0424,-0.031,0.055,-0.126
1701525723.59,19.609,19.609,-19.609,0.001,0.0013000000000000002,0.0402,-0.049,0.07200000000000001,-0.10300000000000001
1701525723.6299999,19.609,19.609,-19.609,0.0024000000000000002,0.0006000000000000001,-0.0029000000000000002,-0.054,0.048,-0.076
1701525723.67,19.609,19.609,-19.609,0.002,0.0011,0.0098,0.007,0.046,-0.079
1701525723.71,19.609,19.609,-19.609,-0.0006000000000000001,0.002,-0.029300000000000003,0.03,0.03,-0.099
1701525723.75,19.609,19.609,-19.609,-0.003,-0.0007,0.023,0.028,0.013000000000000001,-0.101
1701525723.79,19.609,19.609,-19.609,-0.0013000000000000002,0.002,-0.0366,-0.005,0.013000000000000001,-0.095
1701525723.83,19.609,19.609,-19.609,0.0004,-0.0002,0.033600000000000005,-0.018000000000000002,0.023,-0.093
1701525723.87,19.609,19.609,-19.609,-0.0002,0.0018000000000000002,0.011600000000000001,-0.018000000000000002,0.034,-0.085
1701525723.91,19.609,19.609,-19.609,-0.0016,0.0,-0.0358,0.003,0.04,-0.066
1701525723.95,19.609,19.609,-19.609,-0.0004,0.001,0.0308,0.023,0.041,-0.076
1701525723.99,19.609,19.609,-19.609,-0.0007,-0.00030000000000000003,-0.0405,0.032,0.06,-0.08
1701525724.03,19.609,19.609,-19.609,-0.0002,0.002,0.0261,0.021,0.059000000000000004,-0.082
1701525724.07,19.609,19.609,-19.609,0.001,0.0011,-0.034800000000000005,0.012,0.064,-0.091
1701525724.11,19.609,19.609,-19.609,-0.0017000000000000001,0.00030000000000000003,0.0313,0.02,0.074,-0.094
1701525724.15,19.609,19.609,-19.609,-0.0007,0.00030000000000000003,0.0134,0.005,0.089,-0.089
1701525724.19,19.609,19.609,-19.609,0.0018000000000000002,-0.0006000000000000001,-0.021400000000000002,0.008,0.114,-0.077
1701525724.23,19.609,19.609,-19.609,-0.0039000000000000003,-0.0006000000000000001,-0.046900000000000004,0.051000000000000004,0.13,-0.068
1701525724.27,19.609,19.609,-19.609,0.0001,-0.001,0.0656,0.134,0.152,-0.081
1701525724.31,19.609,19.609,-19.609,0.0009000000000000001,0.0026000000000000003,-0.0499,0.27,0.138,-0.139
1701525724.35,19.609,19.609,-19.609,0.0001,0.00030000000000000003,0.0437,0.302,0.11,-0.157
1701525724.39,19.609,19.609,-19.609,0.0006000000000000001,-0.0009000000000000001,0.0057,0.22,0.075,-0.166
1701525724.43,19.609,19.609,-19.609,-0.00030000000000000003,-0.0009000000000000001,-0.0097,0.10200000000000001,0.034,-0.164
1701525724.47,19.609,19.609,-19.609,-0.0017000000000000001,-0.0002,-0.0134,-0.07,-0.014,-0.146
1701525724.51,19.609,19.609,-19.609,-0.0034000000000000002,-0.0014,-0.0013000000000000002,-0.189,-0.038,-0.12
1701525724.55,19.609,19.609,-19.609,-0.0004,-0.0004,0.0103,-0.20700000000000002,-0.033,-0.11800000000000001
1701525724.59,19.609,19.609,-19.609,-0.0015,0.0004,-0.0099,-0.229,-0.043000000000000003,-0.10300000000000001
1701525724.63,19.609,19.609,-19.609,-0.0006000000000000001,-0.0025,-0.049,-0.164,-0.069,-0.084
1701525724.67,19.609,19.609,-19.609,0.0,0.00030000000000000003,0.056600000000000004,-0.109,-0.065,-0.08600000000000001
1701525724.71,19.609,19.609,-19.609,0.0006000000000000001,0.001,-0.041100000000000005,-0.046,-0.056,-0.097
1701525724.75,19.609,19.609,-19.609,-0.0007,-0.0002,0.0438,-0.001,-0.043000000000000003,-0.134
1701525724.79,19.609,19.609,-19.609,-0.0006000000000000001,0.0,-0.0023,-0.015,-0.036000000000000004,-0.132
1701525724.83,19.609,19.609,-19.609,-0.0013000000000000002,0.0012000000000000001,0.0045000000000000005,-0.048,-0.038,-0.108
1701525724.87,19.609,19.609,-19.609,0.0031000000000000003,0.0015,-0.0118,-0.013000000000000001,-0.042,-0.114
1701525724.9099998,19.609,19.609,-19.609,-0.0011,0.0006000000000000001,-0.0098,0.011,-0.042,-0.113
1701525724.95,19.609,19.609,-19.609,-0.0002,-0.00030000000000000003,0.0142,0.017,-0.034,-0.105
1701525724.99,19.609,19.609,-19.609,0.0,-0.0007,0.0058000000000000005,0.025,-0.047,-0.122
1701525725.03,19.609,19.609,-19.609,-0.0015,-0.0032,-0.049600000000000005,0.001,-0.04,-0.108
1701525725.07,19.609,19.609,-19.609,0.002,-0.0005,0.0369,-0.029,-0.037,-0.10300000000000001
1701525725.11,19.609,19.609,-19.609,0.0011,0.0019,-0.023100000000000002,-0.022,-0.024,-0.115
1701525725.1499999,19.609,19.609,-19.609,-0.0005,-0.0004,-0.0565,-0.029,-0.045,-0.11800000000000001
1701525725.19,19.609,19.609,-19.609,0.0001,-0.0006000000000000001,0.075,-0.022,-0.057,-0.113
1701525725.23,19.609,19.609,-19.609,-0.0002,-0.0001,-0.035,-0.017,-0.063,-0.112
1701525725.27,19.609,19.609,-19.609,-0.0006000000000000001,-0.0025,0.0297,-0.024,-0.07200000000000001,-0.112
1701525725.31,19.609,19.609,-19.609,-0.0002,-0.0012000000000000001,0.012,-0.047,-0.068,-0.10400000000000001
1701525725.35,19.609,19.609,-19.609,-0.00030000000000000003,0.0033,-0.039900000000000005,-0.061,-0.058,-0.097
1701525725.3899999,19.609,19.609,-19.609,0.001,-0.0012000000000000001,0.0461,-0.023,-0.077,-0.121
1701525725.43,19.609,19.609,-19.609,0.0006000000000000001,0.0025,0.0015,-0.007,-0.095,-0.14400000000000002
1701525725.47,19.609,19.609,-19.609,-0.0009000000000000001,0.0007,-0.046,-0.022,-0.096,-0.14200000000000002
1701525725.51,19.609,19.609,-19.609,0.0001,0.0004,0.0449,-0.017,-0.092,-0.123
1701525725.55,19.609,19.609,-19.609,-0.0015,-0.0007,0.0222,-0.01,-0.083,-0.127
1701525725.59,19.609,19.609,-19.609,-0.0006000000000000001,0.0005,-0.0468,0.004,-0.077,-0.12
1701525725.6299999,19.609,19.609,-19.609,0.0,-0.0018000000000000002,-0.0057,0.008,-0.07100000000000001,-0.117
1701525725.67,19.609,19.609,-19.609,-0.00030000000000000003,-0.0004,0.0538,-0.001,-0.074,-0.116
1701525725.71,19.609,19.609,-19.609,-0.0004,-0.0007,-0.0594,0.0,-0.089,-0.13
1701525725.75,19.609,19.609,-19.609,-0.0007,-0.0002,0.0536,0.01,-0.078,-0.126
1701525725.79,19.609,19.609,-19.609,0.006,-0.0014,-0.007200000000000001,0.016,-0.076,-0.123
1701525725.83,19.609,19.609,-19.609,0.0028,-0.00030000000000000003,-0.0269,0.012,-0.064,-0.122
1701525725.87,19.609,19.609,-19.609,-0.0004,0.0004,0.0358,-0.001,-0.062,-0.131
1701525725.91,19.609,19.609,-19.609,-0.0025,-0.0008,-0.0383,-0.012,-0.037,-0.132
1701525725.95,19.609,19.609,-19.609,0.0032,-0.0004,0.033800000000000004,-0.019,-0.037,-0.147
1701525725.99,19.609,19.609,-19.609,-0.0027,0.0,-0.0376,-0.028,-0.041,-0.14300000000000002
1701525726.03,19.609,19.609,-19.609,-0.0009000000000000001,0.0001,0.0341,-0.049,-0.05,-0.128
1701525726.07,19.609,19.609,-19.609,-0.002,-0.0024000000000000002,-0.0671,-0.024,-0.053,-0.129
1701525726.11,19.609,19.609,-19.609,-0.0019,0.0002,0.06960000000000001,-0.017,-0.055,-0.14100000000000001
1701525726.15,19.609,19.609,-19.609,-0.0012000000000000001,-0.0021000000000000003,-0.009000000000000001,-0.013000000000000001,-0.054,-0.138
1701525726.19,19.609,19.609,-19.609,-0.0017000000000000001,-0.0013000000000000002,-0.0117,-0.035,-0.036000000000000004,-0.129
1701525726.23,19.609,19.609,-19.609,0.0004,-0.0015,0.0187,-0.028,-0.044,-0.126
1701525726.27,19.609,19.609,-19.609,-0.0004,0.0,-0.0195,-0.027,-0.055,-0.138
1701525726.31,19.609,19.609,-19.609,0.0018000000000000002,0.00030000000000000003,0.007,-0.001,-0.068,-0.134
1701525726.35,19.609,19.609,-19.609,-0.0019,0.0012000000000000001,-0.0386,-0.014,-0.068,-0.137
1701525726.39,19.609,19.609,-19.609,-0.0001,0.0028,-0.047900000000000005,-0.01,-0.058,-0.127
1701525726.43,19.609,19.609,-19.609,0.001,-0.0017000000000000001,0.08600000000000001,-0.002,-0.033,-0.146
1701525726.47,19.609,19.609,-19.609,-0.0009000000000000001,-0.0008,0.004,-0.006,-0.032,-0.127
1701525726.51,19.609,19.609,-19.609,-0.002,0.0014,-0.0429,-0.023,-0.033,-0.127
1701525726.55,19.609,19.609,-19.609,-0.0012000000000000001,-0.0004,0.0346,0.0,-0.012,-0.12
1701525726.59,19.609,19.609,-19.609,0.0013000000000000002,0.0001,-0.0398,0.006,-0.031,-0.115
1701525726.63,19.609,19.609,-19.609,-0.0012000000000000001,0.0007,0.0405,0.0,-0.042,-0.11
1701525726.67,19.609,19.609,-19.609,-0.0001,-0.0026000000000000003,0.0046,-0.007,-0.047,-0.11
1701525726.71,19.609,19.609,-19.609,-0.0016,-0.0009000000000000001,-0.0465,-0.003,-0.062,-0.113
1701525726.75,19.609,19.609,-19.609,0.0004,-0.00030000000000000003,0.0388,-0.003,-0.034,-0.114
1701525726.79,19.609,19.609,-19.609,0.0001,-0.0009000000000000001,0.0033,0.0,-0.032,-0.134
1701525726.83,19.609,19.609,-19.609,0.0,-0.0017000000000000001,-0.032100000000000004,0.001,-0.025,-0.13
1701525726.87,19.609,19.609,-19.609,-0.0007,0.0029000000000000002,0.0374,-0.018000000000000002,-0.023,-0.127
1701525726.9099998,19.609,19.609,-19.609,-0.0015,0.0012000000000000001,0.0064,-0.026000000000000002,-0.031,-0.11800000000000001
1701525726.95,19.609,19.609,-19.609,-0.0009000000000000001,-0.0013000000000000002,-0.0328,-0.011,-0.039,-0.12
1701525726.99,19.609,19.609,-19.609,0.0021000000000000003,-0.0001,0.0359,-0.004,-0.039,-0.117
1701525727.03,19.609,19.609,-19.609,-0.002,0.0,0.008700000000000001,-0.013000000000000001,-0.034,-0.107
1701525727.07,19.609,19.609,-19.609,-0.0001,0.0012000000000000001,-0.0516,0.004,-0.033,-0.107
1701525727.11,19.609,19.609,-19.609,-0.00030000000000000003,0.0008,0.0516,0.023,-0.037,-0.11800000000000001
1701525727.1499999,19.609,19.609,-19.609,-0.0001,-0.0008,-0.0322,0.014,-0.024,-0.11900000000000001
1701525727.19,19.609,19.609,-19.609,0.00030000000000000003,0.0014,0.028300000000000002,-0.004,-0.02,-0.14200000000000002
1701525727.23,19.609,19.609,-19.609,-0.0036000000000000003,-0.003,0.0044,-0.017,-0.023,-0.148
1701525727.27,19.609,19.609,-19.609,-0.0021000000000000003,0.0014,-0.048400000000000006,-0.038,-0.033,-0.14400000000000002
1701525727.31,19.609,19.609,-19.609,0.001,-0.0015,0.0456,-0.019,-0.039,-0.131
1701525727.35,19.609,19.609,-19.609,0.0023,0.0019,0.057,0.011,-0.018000000000000002,-0.11800000000000001
1701525727.3899999,19.609,19.609,-19.609,0.0019,-0.0009000000000000001,0.0098,0.058,0.001,-0.13
1701525727.43,19.609,19.609,-19.609,-0.0012000000000000001,-0.0019,-0.0476,0.165,0.021,-0.183
1701525727.47,19.609,19.609,-19.609,0.0005,0.0014,0.043000000000000003,0.182,0.008,-0.186
1701525727.51,19.609,19.609,-19.609,0.0015,-0.0025,-0.0443,0.098,-0.014,-0.14100000000000001
1701525727.55,19.609,19.609,-19.609,-0.0018000000000000002,0.0011,0.0374,0.021,-0.048,-0.121
1701525727.59,19.609,19.609,-19.609,0.00030000000000000003,-0.0017000000000000001,-0.036500000000000005,-0.048,-0.059000000000000004,-0.10400000000000001
1701525727.6299999,19.609,19.609,-19.609,-0.0016,0.0018000000000000002,0.044700000000000004,-0.04,-0.059000000000000004,-0.10400000000000001
1701525727.67,19.609,19.609,-19.609,-0.0018000000000000002,-0.0005,-0.0572,-0.031,-0.055,-0.131
1701525727.71,19.609,19.609,-19.609,-0.0007,-0.0001,0.05,-0.034,-0.046,-0.123
1701525727.75,19.609,19.609,-19.609,-0.0014,0.001,0.0098,-0.052000000000000005,-0.056,-0.12
1701525727.79,19.609,19.609,-19.609,0.0007,-0.001,-0.056400000000000006,-0.051000000000000004,-0.043000000000000003,-0.132
1701525727.83,19.609,19.609,-19.609,-0.0025,0.0001,0.0454,-0.055,-0.006,-0.11900000000000001
1701525727.87,19.609,19.609,-19.609,-0.0016,0.00030000000000000003,-0.0014,-0.02,0.003,-0.117
1701525727.91,19.609,19.609,-19.609,0.0007,-0.00030000000000000003,-0.0233,-0.022,0.012,-0.117
1701525727.95,19.609,19.609,-19.609,-0.0017000000000000001,0.0006000000000000001,0.0194,-0.02,-0.004,-0.112
1701525727.99,19.609,19.609,-19.609,-0.0027,0.0004,-0.0795,-0.026000000000000002,0.005,-0.114
1701525728.03,19.609,19.609,-19.609,0.0013000000000000002,0.0004,0.0815,-0.023,-0.018000000000000002,-0.113
1701525728.07,19.609,19.609,-19.609,-0.0004,-0.0004,-0.0504,-0.029,0.017,-0.105
1701525728.11,19.609,19.609,-19.609,0.0026000000000000003,-0.0004,0.050100000000000006,-0.019,-0.021,-0.10400000000000001
1701525728.15,19.609,19.609,-19.609,-0.0015,-0.001,0.004,-0.021,-0.028,-0.088
1701525728.19,19.609,19.609,-19.609,0.0001,0.0004,-0.0274,0.019,-0.039,-0.1
1701525728.23,19.609,19.609,-19.609,-0.0004,0.0002,0.024800000000000003,0.016,-0.035,-0.095
1701525728.27,19.609,19.609,-19.609,0.00030000000000000003,0.001,-0.0388,0.019,-0.037,-0.076
1701525728.31,19.609,19.609,-19.609,0.0001,0.00030000000000000003,0.0427,0.026000000000000002,-0.017,-0.074
1701525728.35,19.609,19.609,-19.609,0.0007,0.00030000000000000003,-0.0025,0.015,-0.03,-0.08600000000000001
1701525728.39,19.609,19.609,-19.609,0.001,-0.0004,0.0026000000000000003,0.011,-0.049,-0.098
1701525728.43,19.609,19.609,-19.609,-0.0026000000000000003,0.0004,-0.025,-0.034,-0.047,-0.10200000000000001
1701525728.47,19.609,19.609,-19.609,0.0,0.0015,-0.042300000000000004,0.004,-0.079,-0.12
1701525728.51,19.609,19.609,-19.609,-0.0001,-0.0012000000000000001,0.0529,-0.008,-0.069,-0.129
1701525728.55,19.609,19.609,-19.609,-0.0001,0.0001,0.0102,-0.017,-0.054,-0.126
1701525728.59,19.609,19.609,-19.609,0.0019,-0.0013000000000000002,-0.0524,-0.014,-0.067,-0.134
1701525728.63,19.609,19.609,-19.609,0.0012000000000000001,0.0,0.055,-0.006,-0.075,-0.131
1701525728.67,19.609,19.609,-19.609,-0.0021000000000000003,0.0018000000000000002,-0.010400000000000001,0.005,-0.081,-0.123
1701525728.71,19.609,19.609,-19.609,0.002,0.0016,0.0073,0.031,-0.066,-0.116
1701525728.75,19.609,19.609,-19.609,0.0017000000000000001,-0.0018000000000000002,-0.0386,0.034,-0.067,-0.124
1701525728.79,19.609,19.609,-19.609,0.0002,0.0018000000000000002,0.045000000000000005,0.0,-0.068,-0.126
1701525728.83,19.609,19.609,-19.609,-0.0001,-0.0009000000000000001,-0.0238,-0.054,-0.063,-0.132
1701525728.87,19.609,19.609,-19.609,0.0005,0.0,0.0302,-0.061,-0.053,-0.122
1701525728.9099998,19.609,19.609,-19.609,-0.0008,0.0013000000000000002,-0.0369,-0.032,-0.049,-0.121
1701525728.95,19.609,19.609,-19.609,-0.0005,-0.0021000000000000003,0.0393,0.0,-0.046,-0.10300000000000001
1701525728.99,19.609,19.609,-19.609,0.0004,-0.0001,-0.038200000000000005,0.029,-0.031,-0.094
1701525729.03,19.609,19.609,-19.609,0.00030000000000000003,0.0002,0.0426,0.031,-0.023,-0.106
1701525729.07,19.609,19.609,-19.609,-0.0004,-0.0018000000000000002,-0.0476,0.007,-0.043000000000000003,-0.11800000000000001
1701525729.11,19.609,19.609,-19.609,-0.0006000000000000001,-0.0007,0.053700000000000005,-0.03,-0.033,-0.126
1701525729.1499999,19.609,19.609,-19.609,0.00030000000000000003,-0.0012000000000000001,-0.049,-0.032,-0.032,-0.136
1701525729.19,19.609,19.609,-19.609,-0.0004,0.0008,-0.0466,-0.03,-0.041,-0.14200000000000002
1701525729.23,19.609,19.609,-19.609,-0.001,-0.0004,0.034300000000000004,-0.025,-0.054,-0.138
1701525729.27,19.609,19.609,-19.609,0.0002,-0.0015,-0.0034000000000000002,-0.031,-0.055,-0.136
1701525729.31,19.609,19.609,-19.609,-0.00030000000000000003,0.0016,0.009000000000000001,-0.024,-0.051000000000000004,-0.115
1701525729.35,19.609,19.609,-19.609,-0.0015,0.0004,-0.020900000000000002,-0.019,-0.04,-0.10300000000000001
1701525729.3899999,19.609,19.609,-19.609,0.0017000000000000001,0.0014,-0.047,0.018000000000000002,-0.03,-0.109
1701525729.43,19.609,19.609,-19.609,-0.0013000000000000002,0.0007,0.0675,0.023,-0.024,-0.12
1701525729.47,19.609,19.609,-19.609,0.0001,-0.0012000000000000001,-0.050800000000000005,-0.002,-0.03,-0.12
1701525729.51,19.609,19.609,-19.609,-0.0014,0.0007,0.051800000000000006,-0.027,-0.035,-0.124
1701525729.55,19.609,19.609,-19.609,0.0025,0.0004,-0.030100000000000002,-0.026000000000000002,-0.022,-0.13
1701525729.59,19.609,19.609,-19.609,-0.0024000000000000002,-0.00030000000000000003,0.008400000000000001,-0.031,-0.03,-0.14
1701525729.6299999,19.609,19.609,-19.609,-0.0039000000000000003,-0.0009000000000000001,0.0172,-0.036000000000000004,-0.013000000000000001,-0.113
1701525729.67,19.609,19.609,-19.609,-0.0001,0.00030000000000000003,-0.0137,-0.014,-0.025,-0.10300000000000001
1701525729.71,19.609,19.609,-19.609,-0.0009000000000000001,0.0006000000000000001,0.0164,0.021,-0.029,-0.116
1701525729.75,19.609,19.609,-19.609,0.0005,-0.0001,-0.0245,0.025,-0.039,-0.12
1701525729.79,19.609,19.609,-19.609,0.0007,0.0004,-0.045700000000000005,-0.002,-0.028,-0.129
1701525729.83,19.609,19.609,-19.609,0.0015,0.001,0.066,-0.011,-0.023,-0.14
1701525729.87,19.609,19.609,-19.609,-0.0012000000000000001,-0.0014,0.0015,0.012,-0.016,-0.162
1701525729.91,19.609,19.609,-19.609,0.0009000000000000001,-0.0014,-0.042,0.0,-0.026000000000000002,-0.147
1701525729.95,19.609,19.609,-19.609,-0.0043,-0.0007,0.0371,0.042,-0.021,-0.138
1701525729.99,19.609,19.609,-19.609,-0.0006000000000000001,-0.0007,0.0023,0.067,-0.015,-0.14100000000000001
1701525730.03,19.609,19.609,-19.609,0.0004,0.0008,-0.057600000000000005,0.079,-0.007,-0.124
1701525730.07,19.609,19.609,-19.609,-0.0009000000000000001,0.0009000000000000001,0.0509,0.041,-0.048,-0.111
1701525730.11,19.609,19.609,-19.609,-0.0023,-0.0009000000000000001,0.002,-0.01,-0.065,-0.117
1701525730.15,19.609,19.609,-19.609,-0.0001,0.0004,-0.0444,-0.038,-0.052000000000000005,-0.116
1701525730.19,19.609,19.609,-19.609,-0.0039000000000000003,-0.0025,0.0285,-0.042,-0.044,-0.128
1701525730.23,19.609,19.609,-19.609,-0.0006000000000000001,0.001,0.0059,-0.043000000000000003,-0.067,-0.128
1701525730.27,19.609,19.609,-19.609,0.0001,-0.00030000000000000003,0.0026000000000000003,-0.033,-0.057,-0.127
1701525730.31,19.609,19.609,-19.609,0.0015,0.0002,-0.045000000000000005,-0.029,-0.046,-0.131
1701525730.35,19.609,19.609,-19.609,0.0004,-0.0007,0.0427,-0.035,-0.048,-0.10300000000000001
1701525730.39,19.609,19.609,-19.609,0.0,0.0001,0.0092,-0.029,-0.025,-0.108
1701525730.43,19.609,19.609,-19.609,0.00030000000000000003,0.0006000000000000001,-0.0073,-0.011,-0.03,-0.111
1701525730.47,19.609,19.609,-19.609,0.0012000000000000001,-0.0006000000000000001,-0.0222,-0.011,-0.026000000000000002,-0.098
1701525730.51,19.609,19.609,-19.609,-0.0021000000000000003,0.0014,0.0264,-0.017,-0.033,-0.093
1701525730.55,19.609,19.609,-19.609,-0.0016,-0.0005,-0.004200000000000001,-0.02,-0.048,-0.096
1701525730.59,19.609,19.609,-19.609,0.0006000000000000001,0.0007,-0.0017000000000000001,-0.021,-0.049,-0.10400000000000001
1701525730.63,19.609,19.609,-19.609,0.0029000000000000002,-0.0013000000000000002,-0.0081,-0.009000000000000001,-0.04,-0.107
1701525730.67,19.609,19.609,-19.609,-0.0012000000000000001,0.0,0.0119,-0.004,-0.033,-0.112
1701525730.71,19.609,19.609,-19.609,-0.0017000000000000001,-0.0021000000000000003,-0.0378,-0.002,-0.034,-0.105
1701525730.75,19.609,19.609,-19.609,-0.0043,0.0023,0.0339,-0.001,-0.033,-0.113
1701525730.79,19.609,19.609,-19.609,-0.0007,0.0009000000000000001,-0.0309,0.003,-0.036000000000000004,-0.121
1701525730.83,19.609,19.609,-19.609,0.0,0.001,0.0234,-0.01,-0.036000000000000004,-0.134
1701525730.87,19.609,19.609,-19.609,-0.0007,0.0018000000000000002,-0.0158,-0.017,-0.031,-0.12
1701525730.9099998,19.609,19.609,-19.609,0.0023,-0.001,-0.056100000000000004,-0.012,-0.037,-0.117
1701525730.95,19.609,19.609,-19.609,0.0,0.0017000000000000001,0.0704,0.003,-0.04,-0.11900000000000001
1701525730.99,19.609,19.609,-19.609,0.00030000000000000003,0.0013000000000000002,-0.009000000000000001,0.016,-0.044,-0.132
1701525731.03,19.609,19.609,-19.609,-0.0015,-0.0022,0.0298,-0.005,-0.044,-0.111
1701525731.07,19.609,19.609,-19.609,-0.0018000000000000002,-0.0019,0.024,-0.021,-0.041,-0.122
1701525731.11,19.609,19.609,-19.609,-0.0005,0.0017000000000000001,0.006200000000000001,-0.013000000000000001,-0.047,-0.122
1701525731.1499999,19.609,19.609,-19.609,0.0007,-0.0009000000000000001,0.0064,-0.007,-0.05,-0.117
1701525731.19,19.609,19.609,-19.609,-0.0009000000000000001,-0.00030000000000000003,-0.036500000000000005,-0.009000000000000001,-0.035,-0.107
1701525731.23,19.609,19.609,-19.609,-0.0017000000000000001,-0.0001,-0.0066,-0.004,-0.046,-0.113
1701525731.27,19.609,19.609,-19.609,0.0009000000000000001,-0.0001,0.0408,-0.014,-0.04,-0.125
1701525731.31,19.609,19.609,-19.609,-0.0004,0.0007,-0.0587,-0.025,-0.049,-0.115
1701525731.35,19.609,19.609,-19.609,-0.0002,0.0024000000000000002,0.0521,-0.012,-0.062,-0.116
1701525731.3899999,19.609,19.609,-19.609,-0.0001,0.0014,0.0082,0.007,-0.046,-0.12
1701525731.43,19.609,19.609,-19.609,-0.0004,0.0012000000000000001,-0.0409,-0.026000000000000002,-0.057,-0.107
1701525731.47,19.609,19.609,-19.609,-0.0016,0.0001,0.0438,-0.025,-0.054,-0.096
1701525731.51,19.609,19.609,-19.609,0.0021000000000000003,-0.0002,-0.033600000000000005,-0.014,-0.044,-0.093
1701525731.55,19.609,19.609,-19.609,0.0013000000000000002,0.0001,-0.0519,0.004,-0.037,-0.089
1701525731.59,19.609,19.609,-19.609,0.0009000000000000001,0.0,0.075,0.029,-0.035,-0.10200000000000001
1701525731.6299999,19.609,19.609,-19.609,0.0011,-0.0018000000000000002,-0.0078000000000000005,0.017,-0.037,-0.113
1701525731.67,19.609,19.609,-19.609,0.0011,0.0004,-0.0028,0.0,-0.046,-0.121
1701525731.71,19.609,19.609,-19.609,-0.0009000000000000001,0.0008,0.0007,-0.014,-0.056,-0.127
1701525731.75,19.609,19.609,-19.609,0.0,0.0013000000000000002,-0.0172,-0.032,-0.046,-0.121
1701525731.79,19.609,19.609,-19.609,0.0,0.001,0.0234,-0.019,-0.047,-0.113
1701525731.83,19.609,19.609,-19.609,-0.0017000000000000001,-0.00030000000000000003,-0.0005,-0.007,-0.045,-0.111
1701525731.87,19.609,19.609,-19.609,-0.0014,0.0,-0.0004,0.017,-0.041,-0.116
1701525731.91,19.609,19.609,-19.609,-0.0017000000000000001,0.0,-0.0369,0.008,-0.018000000000000002,-0.108
1701525731.95,19.609,19.609,-19.609,-0.00030000000000000003,0.0007,0.0337,0.008,-0.032,-0.127
1701525731.99,19.609,19.609,-19.609,0.0002,-0.0016,-0.0145,-0.01,-0.033,-0.129
1701525732.03,19.609,19.609,-19.609,-0.0023,0.0022,0.0112,-0.018000000000000002,-0.02,-0.121
1701525732.07,19.609,19.609,-19.609,-0.00030000000000000003,-0.0013000000000000002,-0.060700000000000004,-0.005,-0.04,-0.126
1701525732.11,19.609,19.609,-19.609,-0.001,-0.00030000000000000003,0.051300000000000005,0.004,-0.045,-0.127
1701525732.15,19.609,19.609,-19.609,-0.00030000000000000003,0.0012000000000000001,0.0206,-0.015,-0.047,-0.116
1701525732.19,19.609,19.609,-19.609,-0.0011,-0.00030000000000000003,-0.0405,-0.016,-0.045,-0.117
1701525732.23,19.609,19.609,-19.609,0.0009000000000000001,0.0013000000000000002,0.0328,-0.004,-0.046,-0.121
1701525732.27,19.609,19.609,-19.609,-0.0014,0.0001,-0.044500000000000005,-0.013000000000000001,-0.041,-0.112
1701525732.31,19.609,19.609,-19.609,-0.0009000000000000001,0.0,0.0302,-0.016,-0.043000000000000003,-0.10400000000000001
1701525732.35,19.609,19.609,-19.609,-0.0011,0.0007,0.0092,-0.004,-0.028,-0.111
1701525732.39,19.609,19.609,-19.609,-0.001,-0.0004,-0.019700000000000002,0.007,-0.032,-0.111
1701525732.43,19.609,19.609,-19.609,0.001,0.001,-0.029500000000000002,-0.007,-0.038,-0.129
1701525732.47,19.609,19.609,-19.609,-0.0021000000000000003,0.0,-0.057100000000000005,-0.028,-0.03,-0.124
1701525732.51,19.609,19.609,-19.609,0.0017000000000000001,0.0004,0.0913,-0.025,-0.034,-0.105
1701525732.55,19.609,19.609,-19.609,0.0,-0.0001,0.0013000000000000002,-0.001,-0.029,-0.115
1701525732.59,19.609,19.609,-19.609,-0.0017000000000000001,0.0023,-0.043300000000000005,0.0,-0.04,-0.115
1701525732.63,19.609,19.609,-19.609,0.0009000000000000001,0.0001,0.031,-0.027,-0.035,-0.11
1701525732.67,19.609,19.609,-19.609,-0.001,-0.00030000000000000003,0.014,-0.015,-0.026000000000000002,-0.111
1701525732.71,19.609,19.609,-19.609,-0.0001,0.0006000000000000001,-0.012400000000000001,-0.01,-0.042,-0.126
1701525732.75,19.609,19.609,-19.609,-0.0011,0.00030000000000000003,-0.0073,-0.015,-0.046,-0.11
1701525732.79,19.609,19.609,-19.609,0.0017000000000000001,0.0018000000000000002,0.0297,-0.016,-0.045,-0.11
1701525732.83,19.609,19.609,-19.609,-0.0004,0.0015,-0.0456,-0.001,-0.038,-0.117
1701525732.87,19.609,19.609,-19.609,-0.0001,0.0007,0.0415,0.0,-0.047,-0.109
1701525732.9099998,19.609,19.609,-19.609,0.0015,-0.0002,-0.0562,-0.004,-0.043000000000000003,-0.109
1701525732.95,19.609,19.609,-19.609,0.0006000000000000001,0.0008,0.0322,0.012,-0.039,-0.11800000000000001
1701525732.99,19.609,19.609,-19.609,0.0009000000000000001,0.0004,0.0015,0.018000000000000002,-0.039,-0.124
1701525733.03,19.609,19.609,-19.609,-0.0009000000000000001,-0.0004,-0.057600000000000005,0.016,-0.038,-0.12
1701525733.07,19.609,19.609,-19.609,-0.0021000000000000003,0.0004,0.06330000000000001,0.025,-0.025,-0.11800000000000001
1701525733.11,19.609,19.609,-19.609,-0.0008,-0.0005,-0.0012000000000000001,0.02,-0.037,-0.117
1701525733.1499999,19.609,19.609,-19.609,-0.0007,-0.0004,-0.0234,0.002,-0.032,-0.11900000000000001
1701525733.19,19.609,19.609,-19.609,-0.0009000000000000001,-0.0014,0.0187,-0.012,-0.047,-0.12
1701525733.23,19.609,19.609,-19.609,-0.0017000000000000001,0.0006000000000000001,-0.046,-0.017,-0.045,-0.109
1701525733.27,19.609,19.609,-19.609,-0.0001,-0.0002,-0.0022,-0.006,-0.049,-0.115
1701525733.31,19.609,19.609,-19.609,-0.0012000000000000001,0.0013000000000000002,0.0465,0.006,-0.059000000000000004,-0.123
1701525733.35,19.609,19.609,-19.609,-0.0012000000000000001,-0.0014,-0.0018000000000000002,-0.02,-0.058,-0.126
1701525733.3899999,19.609,19.609,-19.609,-0.002,0.0,0.0046,-0.038,-0.045,-0.12
1701525733.43,19.609,19.609,-19.609,0.0033,0.0005,-0.0358,-0.033,-0.052000000000000005,-0.124
1701525733.47,19.609,19.609,-19.609,-0.0007,0.0002,-0.0396,-0.027,-0.043000000000000003,-0.11900000000000001
1701525733.51,19.609,19.609,-19.609,0.0001,0.0006000000000000001,0.0781,-0.031,-0.048,-0.11800000000000001
1701525733.55,19.609,19.609,-19.609,0.0014,0.0017000000000000001,-0.0456,-0.013000000000000001,-0.04,-0.108
1701525733.59,19.609,19.609,-19.609,-0.0007,0.0,0.0239,-0.01,-0.03,-0.122
1701525733.6299999,19.609,19.609,-19.609,-0.0016,-0.0006000000000000001,0.0098,-0.017,-0.03,-0.12
1701525733.67,19.609,19.609,-19.609,0.001,0.0014,-0.023,-0.028,-0.029,-0.114
1701525733.71,19.609,19.609,-19.609,-0.0008,-0.00030000000000000003,0.0092,-0.007,-0.029,-0.111
1701525733.75,19.609,19.609,-19.609,0.0007,0.00030000000000000003,0.010100000000000001,0.007,-0.031,-0.111
1701525733.79,19.609,19.609,-19.609,0.0019,-0.0028,0.0033,0.001,-0.021,-0.112
1701525733.83,19.609,19.609,-19.609,-0.0018000000000000002,0.0015,-0.0189,-0.003,-0.038,-0.121
1701525733.87,19.609,19.609,-19.609,0.0002,0.00030000000000000003,0.0177,-0.001,-0.037,-0.124
1701525733.91,19.609,19.609,-19.609,0.00030000000000000003,0.0001,-0.0235,-0.016,-0.04,-0.121
1701525733.95,19.609,19.609,-19.609,-0.0009000000000000001,-0.0006000000000000001,-0.014100000000000001,-0.002,-0.035,-0.121
1701525733.99,19.609,19.609,-19.609,0.001,0.00030000000000000003,-0.0375,0.007,-0.031,-0.128
1701525734.03,19.609,19.609,-19.609,-0.0024000000000000002,-0.0017000000000000001,0.06570000000000001,0.014,-0.05,-0.124
1701525734.07,19.609,19.609,-19.609,-0.0031000000000000003,0.0016,-0.0036000000000000003,0.0,-0.047,-0.122
1701525734.11,19.609,19.609,-19.609,0.0018000000000000002,0.0002,-0.046900000000000004,-0.003,-0.036000000000000004,-0.121
1701525734.15,19.609,19.609,-19.609,-0.0009000000000000001,0.0008,0.0419,-0.012,-0.043000000000000003,-0.126
1701525734.19,19.609,19.609,-19.609,0.0018000000000000002,-0.0024000000000000002,-0.0543,-0.017,-0.047,-0.11900000000000001
1701525734.23,19.609,19.609,-19.609,-0.0004,-0.0014,0.056100000000000004,-0.009000000000000001,-0.052000000000000005,-0.112
1701525734.27,19.609,19.609,-19.609,0.0001,0.0014,-0.06380000000000001,0.008,-0.051000000000000004,-0.114
1701525734.31,19.609,19.609,-19.609,0.00030000000000000003,-0.0006000000000000001,0.037700000000000004,0.004,-0.058,-0.10400000000000001
1701525734.35,19.609,19.609,-19.609,0.0011,-0.001,0.0269,-0.003,-0.054,-0.101
1701525734.39,19.609,19.609,-19.609,0.0034000000000000002,0.0014,-0.0078000000000000005,0.006,-0.04,-0.108
1701525734.43,19.609,19.609,-19.609,-0.0013000000000000002,0.0004,0.0004,0.005,-0.038,-0.115
1701525734.47,19.609,19.609,-19.609,0.0009000000000000001,0.0,0.0025,-0.006,-0.04,-0.115
1701525734.51,19.609,19.609,-19.609,0.0002,0.0001,-0.0028,-0.007,-0.048,-0.11800000000000001
1701525734.55,19.609,19.609,-19.609,0.0017000000000000001,0.0001,-0.0485,-0.007,-0.051000000000000004,-0.116
1701525734.59,19.609,19.609,-19.609,0.0009000000000000001,-0.0009000000000000001,0.0555,-0.003,-0.039,-0.111
1701525734.63,19.609,19.609,-19.609,-0.001,0.0002,-0.0043,0.0,-0.043000000000000003,-0.121
1701525734.67,19.609,19.609,-19.609,-0.0006000000000000001,0.0029000000000000002,0.0057,-0.009000000000000001,-0.038,-0.095
1701525734.71,19.609,19.609,-19.609,-0.0012000000000000001,0.0006000000000000001,0.013800000000000002,-0.016,-0.037,-0.107
1701525734.75,19.609,19.609,-19.609,-0.002,-0.0007,-0.0213,-0.004,-0.042,-0.113
1701525734.79,19.609,19.609,-19.609,-0.0006000000000000001,-0.00030000000000000003,-0.0392,-0.016,-0.043000000000000003,-0.12
1701525734.83,19.609,19.609,-19.609,-0.0037,-0.0005,-0.006200000000000001,-0.026000000000000002,-0.026000000000000002,-0.117
1701525734.87,19.609,19.609,-19.609,-0.001,-0.0011,0.0789,-0.031,-0.046,-0.117
1701525734.9099998,19.609,19.609,-19.609,0.0026000000000000003,-0.0012000000000000001,-0.0298,-0.027,-0.043000000000000003,-0.108
1701525734.95,19.609,19.609,-19.609,-0.0001,0.0007,0.021400000000000002,-0.011,-0.022,-0.093
1701525734.99,19.609,19.609,-19.609,-0.0001,0.0023,-0.0591,0.019,-0.016,-0.101
1701525735.03,19.609,19.609,-19.609,-0.0009000000000000001,0.0009000000000000001,0.0533,0.012,-0.038,-0.113
1701525735.07,19.609,19.609,-19.609,-0.0004,-0.0021000000000000003,0.0081,0.003,-0.04,-0.11800000000000001
1701525735.11,19.609,19.609,-19.609,-0.0012000000000000001,-0.00030000000000000003,-0.0504,-0.018000000000000002,-0.051000000000000004,-0.13
1701525735.1499999,19.609,19.609,-19.609,-0.0009000000000000001,0.0007,0.0414,-0.029,-0.039,-0.125
1701525735.19,19.609,19.609,-19.609,0.0012000000000000001,-0.0006000000000000001,0.0031000000000000003,-0.023,-0.038,-0.123
1701525735.23,19.609,19.609,-19.609,0.0,-0.002,-0.0032,0.002,-0.037,-0.117
1701525735.27,19.609,19.609,-19.609,-0.0004,-0.0009000000000000001,-0.0274,0.001,-0.035,-0.114
1701525735.31,19.609,19.609,-19.609,-0.0001,-0.0006000000000000001,0.036500000000000005,0.0,-0.039,-0.122
1701525735.35,19.609,19.609,-19.609,-0.0037,-0.0013000000000000002,-0.0432,0.018000000000000002,-0.045,-0.136
1701525735.3899999,19.609,19.609,-19.609,0.0024000000000000002,0.0,0.023700000000000002,-0.048,-0.036000000000000004,-0.121
1701525735.43,19.609,19.609,-19.609,0.0,-0.0017000000000000001,0.0085,-0.013000000000000001,-0.037,-0.11900000000000001
1701525735.47,19.609,19.609,-19.609,0.0013000000000000002,0.0018000000000000002,-0.0521,-0.01,-0.032,-0.132
1701525735.51,19.609,19.609,-19.609,0.001,0.0018000000000000002,0.0487,-0.017,-0.041,-0.116
1701525735.55,19.609,19.609,-19.609,0.0009000000000000001,0.00030000000000000003,0.0056,-0.027,-0.038,-0.107
1701525735.59,19.609,19.609,-19.609,0.001,-0.0006000000000000001,-0.014400000000000001,-0.021,-0.026000000000000002,-0.09
1701525735.6299999,19.609,19.609,-19.609,-0.0014,-0.001,0.0111,0.03,-0.024,-0.08600000000000001
1701525735.67,19.609,19.609,-19.609,-0.0028,-0.0019,-0.06330000000000001,0.004,-0.034,-0.084
1701525735.71,19.609,19.609,-19.609,-0.0005,0.0,0.061700000000000005,0.035,-0.026000000000000002,-0.106
1701525735.75,19.609,19.609,-19.609,-0.0004,0.001,-0.0415,-0.005,-0.021,-0.122
1701525735.79,19.609,19.609,-19.609,0.001,0.0025,0.0175,-0.013000000000000001,-0.04,-0.125
1701525735.83,19.609,19.609,-19.609,-0.0008,-0.0009000000000000001,0.014700000000000001,-0.015,-0.03,-0.115
1701525735.87,19.609,19.609,-19.609,-0.0014,0.0012000000000000001,0.0092,-0.008,-0.029,-0.113
1701525735.91,19.609,19.609,-19.609,-0.001,0.0006000000000000001,-0.055400000000000005,-0.004,-0.031,-0.116
1701525735.95,19.609,19.609,-19.609,0.001,-0.00030000000000000003,0.0395,0.001,-0.032,-0.11900000000000001
1701525735.99,19.609,19.609,-19.609,0.0017000000000000001,0.0001,0.0095,-0.003,-0.029,-0.12
1701525736.03,19.609,19.609,-19.609,-0.0012000000000000001,-0.0005,0.0009000000000000001,-0.003,-0.034,-0.11900000000000001
1701525736.07,19.609,19.609,-19.609,0.0,-0.0018000000000000002,-0.004200000000000001,-0.007,-0.048,-0.129
1701525736.11,19.609,19.609,-19.609,0.0012000000000000001,-0.0014,0.0067,0.0,-0.035,-0.11900000000000001
1701525736.15,19.609,19.609,-19.609,-0.00030000000000000003,-0.0019,0.004200000000000001,0.0,-0.03,-0.11800000000000001
1701525736.19,19.609,19.609,-19.609,0.0021000000000000003,-0.0001,-0.019200000000000002,0.008,-0.032,-0.12
1701525736.23,19.609,19.609,-19.609,-0.0029000000000000002,0.0013000000000000002,0.012,0.005,-0.034,-0.117
1701525736.27,19.609,19.609,-19.609,-0.0004,-0.00030000000000000003,0.0074,-0.007,-0.035,-0.112
1701525736.31,19.609,19.609,-19.609,-0.0007,0.0004,-0.0373,-0.001,-0.04,-0.121
1701525736.35,19.609,19.609,-19.609,-0.0009000000000000001,0.0009000000000000001,0.0307,-0.003,-0.056,-0.121
1701525736.39,19.609,19.609,-19.609,-0.00030000000000000003,0.0,-0.0325,0.005,-0.066,-0.109
1701525736.43,19.609,19.609,-19.609,0.0004,0.0019,-0.0216,0.007,-0.051000000000000004,-0.105
1701525736.47,19.609,19.609,-19.609,-0.0007,0.001,0.024,0.003,-0.056,-0.109
1701525736.51,19.609,19.609,-19.609,-0.0007,0.0002,-0.046200000000000005,-0.017,-0.068,-0.112
1701525736.55,19.609,19.609,-19.609,0.0,0.0,0.0589,-0.029,-0.048,-0.117
1701525736.59,19.609,19.609,-19.609,0.0,0.0,-0.0379,-0.007,-0.042,-0.126
1701525736.63,19.609,19.609,-19.609,-0.0016,0.001,0.0375,-0.011,-0.045,-0.12
1701525736.67,19.609,19.609,-19.609,0.0022,0.0007,-0.0678,-0.019,-0.039,-0.122
1701525736.71,19.609,19.609,-19.609,0.0,0.0012000000000000001,0.0661,-0.014,-0.038,-0.11900000000000001
1701525736.75,19.609,19.609,-19.609,-0.0005,0.0009000000000000001,-0.042800000000000005,-0.013000000000000001,-0.043000000000000003,-0.123
1701525736.79,19.609,19.609,-19.609,-0.0002,0.0017000000000000001,0.044700000000000004,-0.012,-0.036000000000000004,-0.12
1701525736.83,19.609,19.609,-19.609,-0.0021000000000000003,0.0009000000000000001,-0.0385,-0.019,-0.037,-0.11900000000000001
1701525736.87,19.609,19.609,-19.609,0.0021000000000000003,0.0018000000000000002,0.0318,-0.019,-0.03,-0.105
1701525736.9099998,19.609,19.609,-19.609,-0.0024000000000000002,-0.0006000000000000001,-0.0529,0.006,-0.027,-0.11900000000000001
1701525736.95,19.609,19.609,-19.609,-0.0036000000000000003,-0.0007,0.021400000000000002,0.001,-0.044,-0.12
1701525736.99,19.609,19.609,-19.609,-0.0031000000000000003,-0.0011,-0.0287,-0.029,-0.034,-0.11800000000000001
1701525737.03,19.609,19.609,-19.609,-0.00030000000000000003,-0.0005,0.0458,-0.012,-0.035,-0.121
1701525737.07,19.609,19.609,-19.609,0.0006000000000000001,0.00030000000000000003,-0.0137,0.002,-0.04,-0.129
1701525737.11,19.609,19.609,-19.609,-0.0006000000000000001,0.0002,0.015600000000000001,-0.007,-0.048,-0.115
1701525737.1499999,19.609,19.609,-19.609,0.0012000000000000001,0.0,-0.0023,-0.003,-0.052000000000000005,-0.11800000000000001
1701525737.19,19.609,19.609,-19.609,0.0012000000000000001,0.0014,-0.0553,0.001,-0.049,-0.121
1701525737.23,19.609,19.609,-19.609,-0.0013000000000000002,0.0012000000000000001,0.053700000000000005,-0.013000000000000001,-0.068,-0.116
1701525737.27,19.609,19.609,-19.609,0.00030000000000000003,0.00030000000000000003,0.002,-0.015,-0.069,-0.11900000000000001
1701525737.31,19.609,19.609,-19.609,0.0007,-0.0004,-0.0233,-0.007,-0.049,-0.124
1701525737.35,19.609,19.609,-19.609,0.0006000000000000001,0.0023,0.0173,-0.006,-0.043000000000000003,-0.11800000000000001
1701525737.3899999,19.609,19.609,-19.609,-0.0004,0.0004,-0.0322,-0.015,-0.045,-0.111
1701525737.43,19.609,19.609,-19.609,-0.0031000000000000003,0.0001,0.0328,-0.01,-0.036000000000000004,-0.101
1701525737.47,19.609,19.609,-19.609,-0.0007,-0.0011,0.0031000000000000003,0.022,-0.043000000000000003,-0.106
1701525737.51,19.609,19.609,-19.609,-0.0036000000000000003,-0.001,-0.0375,0.011,-0.039,-0.114
1701525737.55,19.609,19.609,-19.609,-0.0014,-0.0014,0.032600000000000004,-0.004,-0.021,-0.126
1701525737.59,19.609,19.609,-19.609,-0.0013000000000000002,0.0012000000000000001,-0.0688,0.015,-0.029,-0.11
1701525737.6299999,19.609,19.609,-19.609,-0.0001,0.0006000000000000001,0.0679,-0.003,-0.038,-0.11900000000000001
1701525737.67,19.609,19.609,-19.609,0.0028,-0.0012000000000000001,-0.024200000000000003,0.04,-0.029,-0.11900000000000001
1701525737.71,19.609,19.609,-19.609,0.0006000000000000001,0.002,0.0013000000000000002,-0.008,-0.03,-0.114
1701525737.75,19.609,19.609,-19.609,0.0001,-0.0006000000000000001,0.016300000000000002,0.003,-0.035,-0.117
1701525737.79,19.609,19.609,-19.609,0.0012000000000000001,-0.0007,-0.0366,0.005,-0.029,-0.127
1701525737.83,19.609,19.609,-19.609,-0.0032,-0.0007,0.033,-0.012,-0.039,-0.12
1701525737.87,19.609,19.609,-19.609,0.002,-0.0008,-0.0584,-0.023,-0.04,-0.116
1701525737.91,19.609,19.609,-19.609,-0.0018000000000000002,-0.0009000000000000001,0.0516,-0.001,-0.03,-0.127
1701525737.95,19.609,19.609,-19.609,0.00030000000000000003,0.0011,0.0017000000000000001,0.001,-0.04,-0.121
1701525737.99,19.609,19.609,-19.609,-0.0005,0.0014,-0.024200000000000003,-0.006,-0.042,-0.112
1701525738.03,19.609,19.609,-19.609,-0.0001,0.0009000000000000001,0.0172,-0.005,-0.045,-0.11800000000000001
1701525738.07,19.609,19.609,-19.609,-0.0017000000000000001,-0.0009000000000000001,0.007200000000000001,-0.008,-0.045,-0.113
1701525738.11,19.609,19.609,-19.609,0.0001,0.0009000000000000001,-0.0043,-0.009000000000000001,-0.04,-0.115
1701525738.15,19.609,19.609,-19.609,0.0014,-0.0006000000000000001,-0.0562,-0.008,-0.041,-0.107
1701525738.19,19.609,19.609,-19.609,-0.001,0.0006000000000000001,0.049100000000000005,-0.002,-0.037,-0.114
1701525738.23,19.609,19.609,-19.609,0.005,0.0032,-0.0317,0.0,-0.046,-0.10200000000000001
1701525738.27,19.609,19.609,-19.609,0.0018000000000000002,0.0004,0.056,-0.015,-0.04,-0.105
1701525738.31,19.609,19.609,-19.609,-0.0007,-0.0001,-0.036000000000000004,0.001,-0.026000000000000002,-0.096
1701525738.35,19.609,19.609,-19.609,0.0,0.00030000000000000003,0.0304,0.002,-0.024,-0.10200000000000001
1701525738.39,19.609,19.609,-19.609,-0.0017000000000000001,0.001,-0.024900000000000002,-0.009000000000000001,-0.055,-0.113
1701525738.43,19.609,19.609,-19.609,-0.0014,-0.001,0.0262,-0.018000000000000002,-0.063,-0.112
1701525738.47,19.609,19.609,-19.609,-0.0002,0.0014,-0.0362,-0.004,-0.061,-0.122
1701525738.51,19.609,19.609,-19.609,-0.0009000000000000001,0.00030000000000000003,0.015000000000000001,-0.014,-0.038,-0.127
1701525738.55,19.609,19.609,-19.609,-0.0018000000000000002,0.0012000000000000001,0.0089,-0.035,-0.036000000000000004,-0.122
1701525738.59,19.609,19.609,-19.609,-0.0018000000000000002,0.0012000000000000001,0.0099,-0.033,-0.049,-0.096
1701525738.63,19.609,19.609,-19.609,0.0007,0.0009000000000000001,-0.0422,0.004,-0.051000000000000004,-0.099
1701525738.67,19.609,19.609,-19.609,-0.0023,0.0012000000000000001,0.0172,0.017,-0.043000000000000003,-0.107
1701525738.71,19.609,19.609,-19.609,-0.0008,0.0028,0.0148,0.006,-0.052000000000000005,-0.114
1701525738.75,19.609,19.609,-19.609,-0.0006000000000000001,0.0008,-0.0333,-0.018000000000000002,-0.055,-0.126
1701525738.79,19.609,19.609,-19.609,-0.0017000000000000001,0.0001,0.036500000000000005,-0.053,-0.054,-0.131
1701525738.83,19.609,19.609,-19.609,0.0005,0.0026000000000000003,-0.013300000000000001,-0.029,-0.045,-0.135
1701525738.87,19.609,19.609,-19.609,0.001,0.0012000000000000001,-0.013900000000000001,-0.014,-0.057,-0.133
1701525738.9099998,19.609,19.609,-19.609,0.0011,0.0002,-0.058100000000000006,-0.016,-0.033,-0.131
1701525738.95,19.609,19.609,-19.609,-0.00030000000000000003,0.0,0.0758,-0.008,-0.035,-0.124
1701525738.99,19.609,19.609,-19.609,0.0009000000000000001,-0.0002,-0.037200000000000004,-0.008,-0.053,-0.127
1701525739.03,19.609,19.609,-19.609,-0.002,-0.0005,0.041800000000000004,-0.015,-0.055,-0.132
1701525739.07,19.609,19.609,-19.609,-0.002,-0.0021000000000000003,0.0034000000000000002,-0.004,-0.058,-0.11900000000000001
1701525739.11,19.609,19.609,-19.609,0.0004,-0.0002,-0.051800000000000006,0.001,-0.053,-0.114
1701525739.1499999,19.609,19.609,-19.609,-0.0006000000000000001,-0.0007,0.0446,-0.012,-0.031,-0.10400000000000001
1701525739.19,19.609,19.609,-19.609,-0.0004,0.0017000000000000001,-0.0419,0.007,-0.042,-0.115
1701525739.23,19.609,19.609,-19.609,-0.0001,-0.0023,0.048400000000000006,0.005,-0.055,-0.116
1701525739.27,19.609,19.609,-19.609,-0.0005,-0.0012000000000000001,0.0012000000000000001,0.008,-0.05,-0.117
1701525739.31,19.609,19.609,-19.609,-0.0007,0.0,-0.026500000000000003,-0.005,-0.076,-0.135
1701525739.35,19.609,19.609,-19.609,0.0005,-0.0006000000000000001,0.019700000000000002,-0.027,-0.046,-0.126
1701525739.3899999,19.609,19.609,-19.609,0.0,0.0006000000000000001,-0.0012000000000000001,-0.018000000000000002,-0.046,-0.11900000000000001
1701525739.43,19.609,19.609,-19.609,0.0012000000000000001,0.0015,0.0044,0.002,-0.044,-0.127
1701525739.47,19.609,19.609,-19.609,-0.0029000000000000002,0.0017000000000000001,-0.0334,0.004,-0.06,-0.115
1701525739.51,19.609,19.609,-19.609,-0.0027,0.0011,0.0274,0.0,-0.062,-0.10300000000000001
1701525739.55,19.609,19.609,-19.609,-0.0004,-0.0004,0.0046,0.0,-0.048,-0.099
1701525739.59,19.609,19.609,-19.609,0.0007,0.0026000000000000003,-0.0307,0.0,-0.043000000000000003,-0.106
1701525739.6299999,19.609,19.609,-19.609,-0.0004,0.001,0.0275,-0.008,-0.049,-0.124
1701525739.67,19.609,19.609,-19.609,-0.0006000000000000001,-0.0027,-0.0392,-0.032,-0.031,-0.126
1701525739.71,19.609,19.609,-19.609,-0.0028,-0.0005,0.0316,-0.034,-0.019,-0.129
1701525739.75,19.609,19.609,-19.609,-0.0012000000000000001,-0.0004,-0.033100000000000004,-0.012,-0.021,-0.135
1701525739.79,19.609,19.609,-19.609,-0.004,0.001,0.0164,-0.015,-0.041,-0.127
1701525739.83,19.609,19.609,-19.609,-0.0012000000000000001,0.00030000000000000003,0.0224,-0.018000000000000002,-0.052000000000000005,-0.117
1701525739.87,19.609,19.609,-19.609,0.0012000000000000001,0.0004,-0.036000000000000004,-0.002,-0.042,-0.116
1701525739.91,19.609,19.609,-19.609,0.0007,-0.0016,0.038200000000000005,-0.006,-0.05,-0.112
1701525739.95,19.609,19.609,-19.609,-0.0021000000000000003,0.001,-0.046200000000000005,-0.004,-0.031,-0.114
1701525739.99,19.609,19.609,-19.609,0.0013000000000000002,0.001,0.046200000000000005,-0.006,-0.022,-0.117
1701525740.03,19.609,19.609,-19.609,0.0006000000000000001,-0.0018000000000000002,-0.0079,0.003,-0.06,-0.128
1701525740.07,19.609,19.609,-19.609,0.0024000000000000002,0.0012000000000000001,-0.005,-0.015,-0.065,-0.126
1701525740.11,19.609,19.609,-19.609,0.001,-0.0007,0.0051,-0.026000000000000002,-0.045,-0.128
1701525740.15,19.609,19.609,-19.609,0.0009000000000000001,0.00030000000000000003,0.0198,-0.011,-0.049,-0.12
1701525740.19,19.609,19.609,-19.609,-0.0018000000000000002,0.0,-0.049300000000000004,0.009000000000000001,-0.048,-0.10400000000000001
1701525740.23,19.609,19.609,-19.609,-0.001,-0.0005,0.0083,0.006,-0.051000000000000004,-0.10300000000000001
1701525740.27,19.609,19.609,-19.609,-0.0007,0.0006000000000000001,-0.049800000000000004,-0.003,-0.052000000000000005,-0.1
1701525740.31,19.609,19.609,-19.609,0.0013000000000000002,-0.00030000000000000003,0.0656,0.0,-0.045,-0.108
1701525740.35,19.609,19.609,-19.609,0.0018000000000000002,0.0,-0.053200000000000004,-0.012,-0.02,-0.117
1701525740.39,19.609,19.609,-19.609,0.0021000000000000003,0.0,0.056400000000000006,-0.009000000000000001,-0.026000000000000002,-0.117
1701525740.43,19.609,19.609,-19.609,0.0,0.0004,-0.0585,0.0,-0.041,-0.121
1701525740.47,19.609,19.609,-19.609,-0.0033,0.0016,0.0589,0.008,-0.042,-0.122
1701525740.51,19.609,19.609,-19.609,-0.0008,-0.0001,-0.0466,-0.01,-0.046,-0.125
1701525740.55,19.609,19.609,-19.609,0.0,0.00030000000000000003,-0.0385,-0.012,-0.041,-0.10300000000000001
1701525740.59,19.609,19.609,-19.609,-0.0001,-0.001,0.0801,0.01,-0.043000000000000003,-0.108
1701525740.63,19.609,19.609,-19.609,-0.0011,-0.003,0.0027,0.016,-0.042,-0.111
1701525740.67,19.609,19.609,-19.609,-0.0018000000000000002,0.0006000000000000001,-0.0195,-0.012,-0.016,-0.096
1701525740.71,19.609,19.609,-19.609,0.0016,-0.002,0.005,-0.002,-0.018000000000000002,-0.10300000000000001
1701525740.75,19.609,19.609,-19.609,-0.002,0.0001,-0.040400000000000005,0.02,-0.01,-0.10200000000000001
1701525740.79,19.609,19.609,-19.609,-0.0031000000000000003,-0.0009000000000000001,0.035,0.044,-0.031,-0.092
1701525740.83,19.609,19.609,-19.609,-0.0004,-0.0002,-0.0344,0.034,-0.082,-0.1
1701525740.87,19.609,19.609,-19.609,-0.0009000000000000001,-0.0007,0.0122,0.002,-0.076,-0.115
1701525740.9099998,19.609,19.609,-19.609,0.0001,-0.0028,0.0219,-0.031,-0.064,-0.106
1701525740.95,19.609,19.609,-19.609,0.0006000000000000001,0.0007,-0.0014,-0.027,-0.058,-0.111
1701525740.99,19.609,19.609,-19.609,-0.0005,-0.0006000000000000001,-0.0344,-0.004,-0.036000000000000004,-0.1
1701525741.03,19.609,19.609,-19.609,0.0,-0.002,0.0383,-0.003,-0.023,-0.093
1701525741.07,19.609,19.609,-19.609,-0.0021000000000000003,0.0015,-0.004,0.001,-0.045,-0.11
1701525741.11,19.609,19.609,-19.609,0.001,-0.0016,-0.0005,0.045,-0.057,-0.11
1701525741.1499999,19.609,19.609,-19.609,0.0012000000000000001,-0.0008,-0.048,-0.002,-0.039,-0.122
1701525741.19,19.609,19.609,-19.609,0.0016,0.0011,0.0431,-0.023,-0.053,-0.125
1701525741.23,19.609,19.609,-19.609,0.00030000000000000003,-0.0018000000000000002,-0.045700000000000005,-0.043000000000000003,-0.045,-0.136
1701525741.27,19.609,19.609,-19.609,-0.0007,-0.0019,0.038200000000000005,-0.039,-0.024,-0.10300000000000001
1701525741.31,19.609,19.609,-19.609,-0.0027,-0.0004,-0.057,-0.006,-0.009000000000000001,-0.107
1701525741.35,19.609,19.609,-19.609,-0.0009000000000000001,0.0018000000000000002,0.0606,0.029,-0.019,-0.099
1701525741.3899999,19.609,19.609,-19.609,-0.001,-0.0001,0.0048000000000000004,0.031,-0.024,-0.10400000000000001
1701525741.43,19.609,19.609,-19.609,-0.0017000000000000001,0.0012000000000000001,-0.049800000000000004,0.005,-0.029,-0.114
1701525741.47,19.609,19.609,-19.609,0.0012000000000000001,0.0006000000000000001,0.0458,-0.01,-0.031,-0.134
1701525741.51,19.609,19.609,-19.609,0.0009000000000000001,0.0025,-0.0119,-0.026000000000000002,-0.039,-0.136
1701525741.55,19.609,19.609,-19.609,0.0017000000000000001,-0.00030000000000000003,-0.0036000000000000003,-0.015,-0.039,-0.132
1701525741.59,19.609,19.609,-19.609,0.0009000000000000001,-0.0002,-0.0468,0.007,-0.03,-0.122
1701525741.6299999,19.609,19.609,-19.609,-0.002,0.0014,0.046900000000000004,0.016,-0.022,-0.113
1701525741.67,19.609,19.609,-19.609,0.0007,0.0025,-0.0431,0.005,-0.02,-0.10400000000000001
1701525741.71,19.609,19.609,-19.609,-0.002,0.0,0.0511,0.014,-0.016,-0.10200000000000001
1701525741.75,19.609,19.609,-19.609,-0.0005,0.0007,-0.0222,0.0,-0.007,-0.10300000000000001
1701525741.79,19.609,19.609,-19.609,0.001,-0.00030000000000000003,0.0094,0.001,0.005,-0.093
1701525741.83,19.609,19.609,-19.609,-0.0015,0.0012000000000000001,-0.0267,0.0,0.01,-0.081
1701525741.87,19.609,19.609,-19.609,0.0039000000000000003,0.0012000000000000001,0.0247,0.0,0.003,-0.069
1701525741.91,19.609,19.609,-19.609,-0.0023,-0.0012000000000000001,-0.0241,0.013000000000000001,-0.007,-0.07200000000000001
1701525741.95,19.609,19.609,-19.609,0.0023,-0.0023,-0.052000000000000005,0.019,-0.023,-0.1
1701525741.99,19.609,19.609,-19.609,-0.0005,-0.0018000000000000002,0.0,-0.006,-0.034,-0.128
1701525742.03,19.609,19.609,-19.609,-0.0002,-0.0019,-0.0189,-0.029,-0.025,-0.145
1701525742.07,19.609,19.609,-19.609,-0.0026000000000000003,-0.0001,0.031,-0.032,-0.032,-0.155
1701525742.11,19.609,19.609,-19.609,-0.0019,0.0018000000000000002,-0.0407,-0.029,-0.053,-0.146
1701525742.15,19.609,19.609,-19.609,-0.0004,-0.0001,0.0477,-0.029,-0.037,-0.128
1701525742.19,19.609,19.609,-19.609,0.0006000000000000001,0.0004,-0.0483,-0.002,-0.038,-0.122
1701525742.23,19.609,19.609,-19.609,-0.0023,0.0009000000000000001,0.058600000000000006,0.027,-0.025,-0.11
1701525742.27,19.609,19.609,-19.609,0.0001,0.0008,0.0017000000000000001,0.03,-0.037,-0.114
1701525742.31,19.609,19.609,-19.609,-0.001,-0.0018000000000000002,-0.041,0.017,-0.037,-0.147
1701525742.35,19.609,19.609,-19.609,0.0006000000000000001,0.0,0.0166,-0.001,-0.05,-0.156
1701525742.39,19.609,19.609,-19.609,0.0005,-0.0007,0.0151,0.0,-0.043000000000000003,-0.16
1701525742.43,19.609,19.609,-19.609,0.0019,-0.0012000000000000001,-0.0453,0.018000000000000002,-0.038,-0.16
1701525742.47,19.609,19.609,-19.609,0.0004,-0.0039000000000000003,0.0539,0.065,-0.023,-0.146
1701525742.51,19.609,19.609,-19.609,-0.0014,0.0014,-0.0167,0.033,-0.044,-0.121
1701525742.55,19.609,19.609,-19.609,0.0022,-0.001,0.017,-0.021,-0.065,-0.092
1701525742.59,19.609,19.609,-19.609,0.0016,0.0012000000000000001,-0.0419,-0.038,-0.062,-0.1
1701525742.63,19.609,19.609,-19.609,-0.0012000000000000001,0.0023,0.0473,-0.032,-0.067,-0.117
1701525742.67,19.609,19.609,-19.609,0.0007,0.0012000000000000001,0.0013000000000000002,-0.041,-0.063,-0.122
1701525742.71,19.609,19.609,-19.609,-0.0024000000000000002,-0.001,-0.0426,-0.023,-0.059000000000000004,-0.107
1701525742.75,19.609,19.609,-19.609,0.002,0.0009000000000000001,0.036500000000000005,-0.004,-0.05,-0.117
1701525742.79,19.609,19.609,-19.609,-0.00030000000000000003,0.0016,0.0006000000000000001,-0.004,-0.047,-0.122
1701525742.83,19.609,19.609,-19.609,-0.0009000000000000001,0.0,-0.0364,-0.019,-0.043000000000000003,-0.131
1701525742.87,19.609,19.609,-19.609,-0.0014,-0.0009000000000000001,0.0258,-0.032,-0.037,-0.108
1701525742.9099998,19.609,19.609,-19.609,0.0011,0.0023,-0.046,-0.003,-0.043000000000000003,-0.11800000000000001
1701525742.95,19.609,19.609,-19.609,0.0036000000000000003,0.002,0.0439,0.005,-0.054,-0.115
1701525742.99,19.609,19.609,-19.609,0.0,0.0006000000000000001,-0.0397,-0.004,-0.054,-0.10300000000000001
1701525743.03,19.609,19.609,-19.609,-0.0014,-0.0002,0.023,-0.028,-0.042,-0.11900000000000001
1701525743.07,19.609,19.609,-19.609,0.0004,0.0001,0.0108,-0.003,-0.051000000000000004,-0.117
1701525743.11,19.609,19.609,-19.609,0.0004,0.0014,0.006200000000000001,-0.021,-0.05,-0.11
1701525743.1499999,19.609,19.609,-19.609,-0.00030000000000000003,0.0004,-0.0341,-0.009000000000000001,-0.05,-0.109
1701525743.19,19.609,19.609,-19.609,-0.001,-0.0009000000000000001,0.0303,0.002,-0.04,-0.10300000000000001
1701525743.23,19.609,19.609,-19.609,-0.00030000000000000003,0.0012000000000000001,-0.06570000000000001,-0.002,-0.048,-0.101
1701525743.27,19.609,19.609,-19.609,0.0004,0.0004,0.055600000000000004,-0.006,-0.053,-0.112
1701525743.31,19.609,19.609,-19.609,-0.0026000000000000003,0.0025,-0.0523,-0.007,-0.044,-0.125
1701525743.35,19.609,19.609,-19.609,0.0004,-0.0009000000000000001,0.0475,-0.002,-0.042,-0.121
1701525743.3899999,19.609,19.609,-19.609,-0.0012000000000000001,-0.0019,-0.0504,-0.006,-0.043000000000000003,-0.128
1701525743.43,19.609,19.609,-19.609,-0.0006000000000000001,-0.00030000000000000003,0.0545,-0.014,-0.034,-0.107
1701525743.47,19.609,19.609,-19.609,-0.0006000000000000001,0.00030000000000000003,-0.061200000000000004,0.002,-0.032,-0.112
1701525743.51,19.609,19.609,-19.609,0.001,0.0012000000000000001,0.0548,0.011,-0.037,-0.116
1701525743.55,19.609,19.609,-19.609,0.0004,0.004,-0.023100000000000002,-0.008,-0.051000000000000004,-0.121
1701525743.59,19.609,19.609,-19.609,0.0019,0.0017000000000000001,0.021400000000000002,-0.021,-0.048,-0.117
1701525743.6299999,19.609,19.609,-19.609,0.0011,0.0012000000000000001,-0.0023,-0.006,-0.047,-0.13
1701525743.67,19.609,19.609,-19.609,-0.0013000000000000002,-0.0001,-0.0734,-0.005,-0.052000000000000005,-0.128
1701525743.71,19.609,19.609,-19.609,-0.003,0.0007,0.07540000000000001,-0.013000000000000001,-0.048,-0.112
1701525743.75,19.609,19.609,-19.609,0.0019,-0.0018000000000000002,-0.0001,0.002,-0.031,-0.113
1701525743.79,19.609,19.609,-19.609,-0.0027,-0.0017000000000000001,-0.0205,-0.001,-0.045,-0.109
1701525743.83,19.609,19.609,-19.609,-0.002,-0.0009000000000000001,-0.040400000000000005,-0.013000000000000001,-0.053,-0.111
1701525743.87,19.609,19.609,-19.609,0.0006000000000000001,-0.0011,0.030600000000000002,-0.019,-0.058,-0.11900000000000001
1701525743.91,19.609,19.609,-19.609,-0.0004,0.0025,0.0105,-0.018000000000000002,-0.056,-0.124
1701525743.95,19.609,19.609,-19.609,0.002,-0.001,-0.049,-0.021,-0.049,-0.116
1701525743.99,19.609,19.609,-19.609,0.0,0.0009000000000000001,0.0477,-0.019,-0.033,-0.106
1701525744.03,19.609,19.609,-19.609,0.0013000000000000002,-0.0002,-0.0584,0.002,-0.017,-0.093
1701525744.07,19.609,19.609,-19.609,0.0017000000000000001,0.0,0.049300000000000004,0.015,-0.027,-0.096
1701525744.11,19.609,19.609,-19.609,0.0009000000000000001,-0.0012000000000000001,-0.023,0.0,-0.024,-0.099
1701525744.15,19.609,19.609,-19.609,0.0036000000000000003,0.0016,0.0032,-0.013000000000000001,-0.017,-0.097
1701525744.19,19.609,19.609,-19.609,0.0014,-0.0012000000000000001,0.0081,-0.027,-0.03,-0.101
1701525744.23,19.609,19.609,-19.609,0.0011,0.0002,0.0198,-0.029,-0.037,-0.107
1701525744.27,19.609,19.609,-19.609,-0.0023,-0.0005,-0.0025,-0.005,-0.05,-0.106
1701525744.31,19.609,19.609,-19.609,0.0004,-0.0009000000000000001,-0.0439,0.01,-0.053,-0.108
1701525744.35,19.609,19.609,-19.609,0.0006000000000000001,0.0009000000000000001,0.054,0.016,-0.031,-0.113
1701525744.39,19.609,19.609,-19.609,0.0016,0.0001,-0.0443,0.008,-0.036000000000000004,-0.122
1701525744.43,19.609,19.609,-19.609,0.0004,-0.0027,0.0455,-0.009000000000000001,-0.041,-0.12
1701525744.47,19.609,19.609,-19.609,-0.0006000000000000001,-0.0014,0.004200000000000001,-0.019,-0.043000000000000003,-0.127
1701525744.51,19.609,19.609,-19.609,-0.0004,0.0007,-0.0327,-0.015,-0.042,-0.126
1701525744.55,19.609,19.609,-19.609,0.0,-0.0004,0.027700000000000002,-0.01,-0.048,-0.134
1701525744.59,19.609,19.609,-19.609,-0.0001,0.0006000000000000001,-0.048400000000000006,-0.028,-0.035,-0.121
1701525744.63,19.609,19.609,-19.609,0.0001,-0.00030000000000000003,0.0455,0.008,-0.033,-0.11800000000000001
1701525744.67,19.609,19.609,-19.609,-0.0004,-0.0006000000000000001,0.0004,-0.004,-0.028,-0.124
1701525744.71,19.609,19.609,-19.609,0.0001,-0.0009000000000000001,-0.0298,-0.015,-0.029,-0.12
1701525744.75,19.609,19.609,-19.609,0.001,0.00030000000000000003,0.036000000000000004,-0.028,-0.032,-0.115
1701525744.79,19.609,19.609,-19.609,0.0029000000000000002,-0.0009000000000000001,-0.0366,-0.019,-0.031,-0.112
1701525744.83,19.609,19.609,-19.609,0.0029000000000000002,-0.0022,0.0247,-0.009000000000000001,-0.046,-0.11
1701525744.87,19.609,19.609,-19.609,-0.0006000000000000001,-0.00030000000000000003,0.0105,-0.012,-0.039,-0.081
1701525744.9099998,19.609,19.609,-19.609,0.001,0.0001,-0.0511,0.006,-0.036000000000000004,-0.07200000000000001
1701525744.95,19.609,19.609,-19.609,-0.0014,0.0019,0.0463,0.022,-0.029,-0.1
1701525744.99,19.609,19.609,-19.609,-0.0008,-0.0005,-0.0488,0.015,-0.036000000000000004,-0.109
1701525745.03,19.609,19.609,-19.609,-0.0021000000000000003,0.0012000000000000001,0.048100000000000004,-0.029,-0.038,-0.117
1701525745.07,19.609,19.609,-19.609,0.0015,-0.0018000000000000002,-0.0489,-0.03,-0.027,-0.116
1701525745.11,19.609,19.609,-19.609,0.001,0.0018000000000000002,0.0427,-0.023,-0.034,-0.114
1701525745.1499999,19.609,19.609,-19.609,-0.0011,-0.0007,-0.0611,-0.014,-0.049,-0.093
1701525745.19,19.609,19.609,-19.609,0.0,0.0039000000000000003,0.0596,0.019,-0.033,-0.09
1701525745.23,19.609,19.609,-19.609,-0.001,0.00030000000000000003,-0.0205,0.028,-0.014,-0.10300000000000001
1701525745.27,19.609,19.609,-19.609,-0.0004,0.0004,0.0205,0.006,-0.024,-0.115
1701525745.31,19.609,19.609,-19.609,0.0013000000000000002,0.0009000000000000001,-0.00030000000000000003,-0.014,-0.018000000000000002,-0.129
1701525745.35,19.609,19.609,-19.609,-0.0008,0.0012000000000000001,-0.0037,-0.027,-0.028,-0.14200000000000002
1701525745.3899999,19.609,19.609,-19.609,-0.0017000000000000001,-0.0014,0.0103,-0.025,-0.039,-0.14100000000000001
1701525745.43,19.609,19.609,-19.609,-0.001,-0.0021000000000000003,-0.0721,-0.009000000000000001,-0.045,-0.124
1701525745.47,19.609,19.609,-19.609,-0.004,-0.0023,0.0702,-0.007,-0.053,-0.116
1701525745.51,19.609,19.609,-19.609,0.0004,0.0,-0.0256,0.0,-0.051000000000000004,-0.115
1701525745.55,19.609,19.609,-19.609,-0.0009000000000000001,-0.0018000000000000002,-0.0117,0.01,-0.049,-0.109
1701525745.59,19.609,19.609,-19.609,0.0,-0.002,-0.0414,-0.017,-0.045,-0.117
1701525745.6299999,19.609,19.609,-19.609,0.0018000000000000002,-0.0004,0.06380000000000001,-0.017,-0.039,-0.106
1701525745.67,19.609,19.609,-19.609,-0.0028,0.0,0.0358,0.003,-0.05,-0.11800000000000001
1701525745.71,19.609,19.609,-19.609,-0.0028,0.0,0.00030000000000000003,0.007,-0.05,-0.129
1701525745.75,19.609,19.609,-19.609,-0.0018000000000000002,-0.0001,-0.0455,-0.014,-0.055,-0.127
1701525745.79,19.609,19.609,-19.609,-0.001,0.0015,0.0148,-0.021,-0.045,-0.125
1701525745.83,19.609,19.609,-19.609,-0.0001,0.0017000000000000001,0.0251,-0.009000000000000001,-0.043000000000000003,-0.13
1701525745.87,19.609,19.609,-19.609,-0.0017000000000000001,-0.0017000000000000001,-0.041800000000000004,-0.014,-0.034,-0.129
1701525745.91,19.609,19.609,-19.609,0.00030000000000000003,-0.0006000000000000001,0.039900000000000005,-0.015,-0.045,-0.101
1701525745.95,19.609,19.609,-19.609,0.0,0.0004,-0.027600000000000003,0.001,-0.049,-0.11
1701525745.99,19.609,19.609,-19.609,0.0009000000000000001,0.0004,0.0183,0.008,-0.041,-0.115
1701525746.03,19.609,19.609,-19.609,-0.001,-0.0021000000000000003,-0.027100000000000003,0.003,-0.05,-0.111
1701525746.07,19.609,19.609,-19.609,0.0,-0.00030000000000000003,0.0244,0.0,-0.043000000000000003,-0.122
1701525746.11,19.609,19.609,-19.609,-0.0016,-0.0008,-0.0448,-0.002,-0.03,-0.127
1701525746.15,19.609,19.609,-19.609,0.0004,0.0006000000000000001,0.0449,-0.012,-0.039,-0.122
1701525746.19,19.609,19.609,-19.609,0.0001,-0.0004,-0.0674,-0.016,-0.042,-0.114
1701525746.23,19.609,19.609,-19.609,0.0004,-0.0007,0.0641,-0.019,-0.055,-0.117
1701525746.27,19.609,19.609,-19.609,-0.0005,-0.0018000000000000002,-0.035,-0.017,-0.027,-0.114
1701525746.31,19.609,19.609,-19.609,0.0,-0.001,0.027100000000000003,-0.016,0.001,-0.111
1701525746.35,19.609,19.609,-19.609,0.0007,0.0001,-0.0011,-0.014,-0.035,-0.114
1701525746.39,19.609,19.609,-19.609,-0.0015,-0.0001,-0.0363,-0.003,-0.035,-0.096
1701525746.43,19.609,19.609,-19.609,-0.0004,0.0004,-0.07150000000000001,0.001,-0.039,-0.105
1701525746.47,19.609,19.609,-19.609,-0.0009000000000000001,-0.00030000000000000003,0.0932,-0.002,-0.042,-0.123
1701525746.51,19.609,19.609,-19.609,-0.0004,-0.0014,-0.00030000000000000003,-0.016,-0.039,-0.11800000000000001
1701525746.55,19.609,19.609,-19.609,-0.0012000000000000001,0.00030000000000000003,-0.0386,-0.025,-0.02,-0.126
1701525746.59,19.609,19.609,-19.609,-0.0009000000000000001,0.0008,0.0361,-0.022,-0.026000000000000002,-0.12
1701525746.63,19.609,19.609,-19.609,0.0,-0.001,-0.0424,-0.017,-0.039,-0.116
1701525746.67,19.609,19.609,-19.609,0.0009000000000000001,-0.0014,-0.039900000000000005,-0.014,-0.028,-0.114
1701525746.71,19.609,19.609,-19.609,-0.003,0.0002,0.083,0.014,-0.04,-0.116
1701525746.75,19.609,19.609,-19.609,-0.0004,-0.0019,-0.0292,0.003,-0.047,-0.11800000000000001
1701525746.79,19.609,19.609,-19.609,0.001,0.0001,0.0269,-0.003,-0.049,-0.11900000000000001
1701525746.83,19.609,19.609,-19.609,0.0006000000000000001,0.0014,-0.043300000000000005,-0.011,-0.047,-0.129
1701525746.87,19.609,19.609,-19.609,-0.0012000000000000001,-0.0018000000000000002,0.0468,-0.007,-0.045,-0.127
1701525746.9099998,19.609,19.609,-19.609,0.0005,0.0004,-0.005200000000000001,-0.009000000000000001,-0.049,-0.13
1701525746.95,19.609,19.609,-19.609,-0.0018000000000000002,0.0001,-0.0361,0.009000000000000001,-0.048,-0.123
1701525746.99,19.609,19.609,-19.609,0.001,0.0006000000000000001,-0.026600000000000002,0.011,-0.049,-0.116
1701525747.03,19.609,19.609,-19.609,0.0,-0.0006000000000000001,0.0601,0.01,-0.048,-0.109
1701525747.07,19.609,19.609,-19.609,-0.0009000000000000001,0.0007,-0.007200000000000001,0.012,-0.046,-0.121
1701525747.11,19.609,19.609,-19.609,-0.0016,0.0001,0.0019,-0.004,-0.036000000000000004,-0.114
1701525747.1499999,19.609,19.609,-19.609,0.0007,0.0004,-0.0297,-0.022,-0.036000000000000004,-0.112
1701525747.19,19.609,19.609,-19.609,0.0015,-0.0004,0.0105,-0.014,-0.051000000000000004,-0.127
1701525747.23,19.609,19.609,-19.609,-0.00030000000000000003,-0.0012000000000000001,-0.057800000000000004,-0.013000000000000001,-0.062,-0.122
1701525747.27,19.609,19.609,-19.609,-0.001,0.0009000000000000001,0.0689,-0.025,-0.058,-0.109
1701525747.31,19.609,19.609,-19.609,-0.0007,-0.0018000000000000002,-0.004200000000000001,-0.026000000000000002,-0.05,-0.10200000000000001
1701525747.35,19.609,19.609,-19.609,-0.0009000000000000001,0.0,-0.049,-0.002,-0.032,-0.08700000000000001
1701525747.3899999,19.609,19.609,-19.609,0.0006000000000000001,-0.0023,0.0526,0.025,-0.04,-0.077
1701525747.43,19.609,19.609,-19.609,-0.0014,0.0014,-0.0026000000000000003,0.031,-0.032,-0.091
1701525747.47,19.609,19.609,-19.609,-0.003,-0.0006000000000000001,-0.044000000000000004,0.014,-0.036000000000000004,-0.11
1701525747.51,19.609,19.609,-19.609,-0.0028,0.0007,-0.0574,-0.017,-0.042,-0.124
1701525747.55,19.609,19.609,-19.609,-0.0001,-0.0008,0.035,-0.028,-0.049,-0.134
1701525747.59,19.609,19.609,-19.609,-0.0021000000000000003,-0.0005,-0.0347,-0.019,-0.044,-0.132
1701525747.6299999,19.609,19.609,-19.609,-0.0002,0.0,0.032600000000000004,-0.005,-0.043000000000000003,-0.121
1701525747.67,19.609,19.609,-19.609,0.0007,-0.001,-0.048600000000000004,0.0,-0.052000000000000005,-0.11900000000000001
1701525747.71,19.609,19.609,-19.609,0.002,-0.0004,0.0245,0.01,-0.047,-0.112
1701525747.75,19.609,19.609,-19.609,-0.0014,-0.0022,-0.0341,0.004,-0.041,-0.108
1701525747.79,19.609,19.609,-19.609,0.0005,0.0007,0.049800000000000004,-0.006,-0.045,-0.10300000000000001
1701525747.83,19.609,19.609,-19.609,-0.0015,0.0014,-0.007,-0.017,-0.037,-0.126
1701525747.87,19.609,19.609,-19.609,-0.0013000000000000002,-0.0001,-0.0393,-0.036000000000000004,-0.041,-0.10400000000000001
1701525747.91,19.609,19.609,-19.609,0.0026000000000000003,-0.0016,0.0463,-0.036000000000000004,-0.035,-0.095
1701525747.95,19.609,19.609,-19.609,0.0007,-0.0012000000000000001,0.0079,-0.002,-0.036000000000000004,-0.092
1701525747.99,19.609,19.609,-19.609,0.0004,0.001,-0.0092,0.02,-0.04,-0.10300000000000001
1701525748.03,19.609,19.609,-19.609,0.0015,-0.0006000000000000001,-0.0426,0.01,-0.051000000000000004,-0.111
1701525748.07,19.609,19.609,-19.609,-0.0015,0.0,0.054200000000000005,-0.001,-0.034,-0.124
1701525748.11,19.609,19.609,-19.609,0.0008,-0.0019,-0.0485,-0.05,-0.035,-0.124
1701525748.15,19.609,19.609,-19.609,-0.0012000000000000001,-0.0018000000000000002,0.0514,-0.035,-0.049,-0.106
1701525748.19,19.609,19.609,-19.609,0.0002,0.0,-0.0046,-0.02,-0.083,-0.114
1701525748.23,19.609,19.609,-19.609,0.0,0.002,-0.0526,-0.005,-0.037,-0.112
1701525748.27,19.609,19.609,-19.609,-0.0026000000000000003,-0.0015,0.0473,0.005,-0.038,-0.096
1701525748.31,19.609,19.609,-19.609,-0.0004,-0.0007,0.0037,0.019,-0.031,-0.106
1701525748.35,19.609,19.609,-19.609,-0.0009000000000000001,0.0017000000000000001,-0.036000000000000004,0.003,-0.029,-0.117
1701525748.39,19.609,19.609,-19.609,-0.0005,-0.0011,-0.028900000000000002,-0.017,-0.03,-0.125
1701525748.43,19.609,19.609,-19.609,-0.0043,-0.0026000000000000003,0.0495,-0.026000000000000002,-0.026000000000000002,-0.134
1701525748.47,19.609,19.609,-19.609,-0.0009000000000000001,-0.001,0.006200000000000001,-0.03,-0.034,-0.131
1701525748.51,19.609,19.609,-19.609,0.00030000000000000003,-0.0006000000000000001,-0.0391,-0.01,-0.03,-0.127
1701525748.55,19.609,19.609,-19.609,0.00030000000000000003,-0.0029000000000000002,0.0358,-0.006,-0.027,-0.12
1701525748.59,19.609,19.609,-19.609,0.001,0.0022,-0.036000000000000004,-0.004,-0.038,-0.106
1701525748.63,19.609,19.609,-19.609,-0.0015,0.0007,0.0332,0.002,-0.029,-0.108
1701525748.67,19.609,19.609,-19.609,-0.0021000000000000003,-0.0012000000000000001,-0.0002,-0.009000000000000001,-0.037,-0.114
1701525748.71,19.609,19.609,-19.609,-0.0018000000000000002,0.0001,0.0038,-0.006,-0.039,-0.122
1701525748.75,19.609,19.609,-19.609,-0.0006000000000000001,0.00030000000000000003,-0.0538,-0.015,-0.032,-0.126
1701525748.79,19.609,19.609,-19.609,0.0001,0.0001,0.0363,-0.019,-0.028,-0.132
1701525748.83,19.609,19.609,-19.609,-0.002,-0.0015,-0.0449,-0.016,-0.038,-0.133
1701525748.87,19.609,19.609,-19.609,0.0005,0.0017000000000000001,0.049800000000000004,-0.009000000000000001,-0.043000000000000003,-0.11900000000000001
1701525748.9099998,19.609,19.609,-19.609,0.0004,0.0034000000000000002,-0.0468,-0.003,-0.047,-0.124
1701525748.95,19.609,19.609,-19.609,0.0004,0.0008,0.038900000000000004,0.0,-0.043000000000000003,-0.122
1701525748.99,19.609,19.609,-19.609,0.0002,0.0006000000000000001,0.0074,-0.01,-0.044,-0.11800000000000001
1701525749.03,19.609,19.609,-19.609,0.0001,0.0,-0.047400000000000005,-0.004,-0.044,-0.114
1701525749.07,19.609,19.609,-19.609,0.0009000000000000001,-0.0012000000000000001,0.041600000000000005,-0.005,-0.049,-0.117
1701525749.11,19.609,19.609,-19.609,-0.00030000000000000003,0.0016,-0.0166,-0.003,-0.052000000000000005,-0.121
1701525749.1499999,19.609,19.609,-19.609,0.0007,0.0,0.010400000000000001,0.001,-0.051000000000000004,-0.124
1701525749.19,19.609,19.609,-19.609,0.0,0.0022,-0.0369,-0.005,-0.031,-0.125
1701525749.23,19.609,19.609,-19.609,-0.0029000000000000002,0.00030000000000000003,0.034300000000000004,-0.013000000000000001,-0.041,-0.129
1701525749.27,19.609,19.609,-19.609,0.0009000000000000001,0.0001,-0.047400000000000005,-0.014,-0.039,-0.125
1701525749.31,19.609,19.609,-19.609,0.00030000000000000003,0.0002,0.007,0.0,-0.038,-0.121
1701525749.35,19.609,19.609,-19.609,0.00030000000000000003,0.0,0.008700000000000001,0.009000000000000001,-0.026000000000000002,-0.106
1701525749.3899999,19.609,19.609,-19.609,-0.0022,-0.0026000000000000003,0.0189,0.0,-0.033,-0.113
1701525749.43,19.609,19.609,-19.609,-0.0019,0.0004,0.0045000000000000005,-0.006,-0.057,-0.12
1701525749.47,19.609,19.609,-19.609,0.0,0.0026000000000000003,-0.0172,-0.009000000000000001,-0.051000000000000004,-0.11900000000000001
1701525749.51,19.609,19.609,-19.609,-0.0009000000000000001,0.0031000000000000003,0.0059,0.005,-0.048,-0.124
1701525749.55,19.609,19.609,-19.609,-0.0007,0.001,0.0064,0.003,-0.048,-0.125
1701525749.59,19.609,19.609,-19.609,0.0001,-0.0017000000000000001,-0.0337,-0.004,-0.066,-0.11800000000000001
1701525749.6299999,19.609,19.609,-19.609,-0.00030000000000000003,0.0005,-0.041600000000000005,0.0,-0.061,-0.115
1701525749.67,19.609,19.609,-19.609,0.0007,-0.00030000000000000003,0.0716,0.012,-0.07,-0.127
1701525749.71,19.609,19.609,-19.609,-0.0014,0.0015,-0.055200000000000006,-0.001,-0.077,-0.123
1701525749.75,19.609,19.609,-19.609,0.0013000000000000002,0.0009000000000000001,0.051500000000000004,-0.017,-0.05,-0.116
1701525749.79,19.609,19.609,-19.609,-0.0016,-0.0006000000000000001,-0.030000000000000002,0.005,-0.052000000000000005,-0.107
1701525749.83,19.609,19.609,-19.609,-0.0004,-0.00030000000000000003,0.0245,0.019,-0.04,-0.106
1701525749.87,19.609,19.609,-19.609,0.0012000000000000001,0.001,-0.0465,0.004,-0.041,-0.108
1701525749.91,19.609,19.609,-19.609,0.002,-0.0015,0.040600000000000004,-0.017,-0.04,-0.11900000000000001
1701525749.95,19.609,19.609,-19.609,-0.0008,0.004,-0.022600000000000002,-0.019,-0.046,-0.128
1701525749.99,19.609,19.609,-19.609,0.0011,0.0014,-0.0531,-0.013000000000000001,-0.07,-0.136
1701525750.03,19.609,19.609,-19.609,0.0006000000000000001,0.0,0.039400000000000004,-0.02,-0.074,-0.135
1701525750.07,19.609,19.609,-19.609,-0.0006000000000000001,-0.0006000000000000001,0.027800000000000002,-0.019,-0.024,-0.114
1701525750.11,19.609,19.609,-19.609,0.0006000000000000001,0.0,-0.046,0.006,-0.041,-0.125
1701525750.15,19.609,19.609,-19.609,-0.001,0.0002,0.0459,0.0,-0.035,-0.127
1701525750.19,19.609,19.609,-19.609,0.0011,0.00030000000000000003,-0.0448,-0.018000000000000002,-0.051000000000000004,-0.10300000000000001
1701525750.23,19.609,19.609,-19.609,-0.0025,0.0012000000000000001,0.0385,-0.021,-0.022,-0.088
1701525750.27,19.609,19.609,-19.609,0.00030000000000000003,-0.0001,0.0026000000000000003,0.002,-0.057,-0.108
1701525750.31,19.609,19.609,-19.609,0.0005,-0.0007,-0.0453,0.012,-0.059000000000000004,-0.105
1701525750.35,19.609,19.609,-19.609,-0.0007,0.0021000000000000003,-0.020200000000000003,0.004,-0.009000000000000001,-0.11800000000000001
1701525750.39,19.609,19.609,-19.609,0.00030000000000000003,0.0002,0.055900000000000005,0.001,-0.046,-0.14
1701525750.43,19.609,19.609,-19.609,-0.0002,-0.0017000000000000001,-0.0308,-0.02,-0.048,-0.14
1701525750.47,19.609,19.609,-19.609,-0.0001,0.0002,0.0245,-0.027,-0.048,-0.133
1701525750.51,19.609,19.609,-19.609,0.0,-0.00030000000000000003,-0.0263,-0.006,-0.057,-0.136
1701525750.55,19.609,19.609,-19.609,-0.001,-0.00030000000000000003,0.0224,0.003,-0.057,-0.131
1701525750.59,19.609,19.609,-19.609,-0.001,0.0023,-0.024800000000000003,0.0,-0.056,-0.127
1701525750.63,19.609,19.609,-19.609,0.00030000000000000003,0.0016,-0.0654,-0.015,-0.051000000000000004,-0.134
1701525750.67,19.609,19.609,-19.609,-0.0017000000000000001,0.0008,0.0844,-0.012,-0.055,-0.132
1701525750.71,19.609,19.609,-19.609,0.0004,-0.0006000000000000001,-0.0022,-0.012,-0.041,-0.122
1701525750.75,19.609,19.609,-19.609,0.0008,0.0004,-0.0417,-0.02,-0.025,-0.114
1701525750.79,19.609,19.609,-19.609,-0.0017000000000000001,0.0007,0.041,-0.002,-0.032,-0.09
1701525750.83,19.609,19.609,-19.609,0.0017000000000000001,-0.0009000000000000001,-0.0507,0.036000000000000004,-0.026000000000000002,-0.085
1701525750.87,19.609,19.609,-19.609,-0.001,-0.0009000000000000001,0.0451,0.059000000000000004,-0.02,-0.099
1701525750.9099998,19.609,19.609,-19.609,-0.0005,-0.0001,-0.0028,0.02,-0.024,-0.099
1701525750.95,19.609,19.609,-19.609,0.0005,-0.0029000000000000002,-0.0324,0.0,-0.034,-0.098
1701525750.99,19.609,19.609,-19.609,0.0,0.0014,0.0386,0.006,-0.024,-0.108
1701525751.03,19.609,19.609,-19.609,-0.0007,0.0005,-0.0417,0.009000000000000001,-0.035,-0.111
1701525751.07,19.609,19.609,-19.609,0.00030000000000000003,0.0007,0.051300000000000005,0.01,-0.047,-0.10200000000000001
1701525751.11,19.609,19.609,-19.609,0.0019,0.0006000000000000001,-0.054900000000000004,0.002,-0.036000000000000004,-0.105
1701525751.1499999,19.609,19.609,-19.609,-0.00030000000000000003,-0.00030000000000000003,0.0078000000000000005,0.0,-0.035,-0.101
1701525751.19,19.609,19.609,-19.609,-0.0006000000000000001,-0.0007,-0.0534,0.004,-0.031,-0.10400000000000001
1701525751.23,19.609,19.609,-19.609,-0.0009000000000000001,-0.0007,0.0213,0.0,-0.029,-0.106
1701525751.27,19.609,19.609,-19.609,-0.0006000000000000001,-0.0018000000000000002,-0.0358,-0.012,-0.034,-0.111
1701525751.31,19.609,19.609,-19.609,0.0023,-0.0014,0.0357,-0.027,-0.023,-0.116
1701525751.35,19.609,19.609,-19.609,0.0006000000000000001,0.0018000000000000002,-0.0523,-0.017,-0.044,-0.116
1701525751.3899999,19.609,19.609,-19.609,-0.003,-0.0019,0.0534,-0.001,-0.051000000000000004,-0.128
1701525751.43,19.609,19.609,-19.609,-0.0007,0.0032,-0.046400000000000004,-0.001,-0.04,-0.121
1701525751.47,19.609,19.609,-19.609,0.0007,-0.0002,0.0407,-0.014,-0.038,-0.124
1701525751.51,19.609,19.609,-19.609,-0.001,0.001,-0.022600000000000002,-0.025,-0.041,-0.12
1701525751.55,19.609,19.609,-19.609,-0.0006000000000000001,0.001,-0.0263,-0.02,-0.05,-0.113
1701525751.59,19.609,19.609,-19.609,-0.0012000000000000001,-0.00030000000000000003,0.027200000000000002,-0.006,-0.046,-0.121
1701525751.6299999,19.609,19.609,-19.609,-0.0004,-0.0009000000000000001,0.0187,0.002,-0.021,-0.127
1701525751.67,19.609,19.609,-19.609,-0.0006000000000000001,0.0018000000000000002,-0.0324,-0.004,-0.059000000000000004,-0.116
1701525751.71,19.609,19.609,-19.609,0.0014,0.0001,0.035500000000000004,-0.008,-0.048,-0.11900000000000001
1701525751.75,19.609,19.609,-19.609,-0.001,0.00030000000000000003,-0.0275,-0.005,-0.049,-0.122
1701525751.79,19.609,19.609,-19.609,-0.0008,0.002,0.027700000000000002,-0.011,-0.07200000000000001,-0.117
1701525751.83,19.609,19.609,-19.609,-0.0002,0.0015,-0.0651,-0.009000000000000001,-0.052000000000000005,-0.11800000000000001
1701525751.87,19.609,19.609,-19.609,-0.0004,0.0014,0.0565,0.009000000000000001,-0.038,-0.124
1701525751.91,19.609,19.609,-19.609,0.0012000000000000001,0.0001,-0.0308,-0.009000000000000001,-0.043000000000000003,-0.123
1701525751.95,19.609,19.609,-19.609,-0.0015,0.0005,0.0325,-0.012,-0.019,-0.125
1701525751.99,19.609,19.609,-19.609,0.0004,0.0,-0.044000000000000004,-0.008,-0.032,-0.121
1701525752.03,19.609,19.609,-19.609,-0.0001,-0.0007,0.041,-0.006,-0.031,-0.13
1701525752.07,19.609,19.609,-19.609,-0.0006000000000000001,0.0017000000000000001,-0.0184,-0.009000000000000001,-0.045,-0.125
1701525752.11,19.609,19.609,-19.609,-0.0025,-0.00030000000000000003,0.012100000000000001,-0.003,-0.053,-0.132
1701525752.15,19.609,19.609,-19.609,-0.001,-0.0007,-0.0335,-0.004,-0.039,-0.122
1701525752.19,19.609,19.609,-19.609,-0.0012000000000000001,-0.0006000000000000001,0.0347,-0.003,-0.049,-0.114
1701525752.23,19.609,19.609,-19.609,0.0009000000000000001,-0.0012000000000000001,-0.035300000000000005,-0.014,-0.058,-0.122
1701525752.27,19.609,19.609,-19.609,-0.0017000000000000001,0.0013000000000000002,0.031400000000000004,-0.013000000000000001,-0.049,-0.113
1701525752.31,19.609,19.609,-19.609,-0.0008,0.0005,-0.0064,-0.015,-0.038,-0.115
1701525752.35,19.609,19.609,-19.609,-0.001,-0.00030000000000000003,0.003,-0.014,-0.047,-0.124
1701525752.39,19.609,19.609,-19.609,0.0001,0.0,-0.0281,-0.016,-0.054,-0.12
1701525752.43,19.609,19.609,-19.609,0.0016,-0.0018000000000000002,0.0029000000000000002,-0.028,-0.058,-0.107
1701525752.47,19.609,19.609,-19.609,-0.0006000000000000001,-0.0025,0.0164,-0.031,-0.055,-0.105
1701525752.51,19.609,19.609,-19.609,0.00030000000000000003,-0.0019,0.0053,-0.014,-0.062,-0.091
1701525752.55,19.609,19.609,-19.609,-0.0004,0.0006000000000000001,-0.0261,0.021,-0.041,-0.074
1701525752.59,19.609,19.609,-19.609,-0.00030000000000000003,0.0001,0.016800000000000002,0.038,-0.03,-0.095
1701525752.63,19.609,19.609,-19.609,0.0018000000000000002,-0.0002,-0.053000000000000005,0.018000000000000002,-0.041,-0.105
1701525752.67,19.609,19.609,-19.609,-0.00030000000000000003,0.0014,0.0534,-0.01,-0.037,-0.12
1701525752.71,19.609,19.609,-19.609,-0.0008,0.00030000000000000003,-0.0233,-0.03,-0.04,-0.132
1701525752.75,19.609,19.609,-19.609,-0.0019,-0.0015,0.0245,-0.031,-0.045,-0.14
1701525752.79,19.609,19.609,-19.609,0.0014,-0.0017000000000000001,-0.0359,-0.006,-0.046,-0.129
1701525752.83,19.609,19.609,-19.609,0.0009000000000000001,-0.0004,0.036500000000000005,0.002,-0.039,-0.117
1701525752.87,19.609,19.609,-19.609,0.0006000000000000001,-0.0012000000000000001,0.0047,0.015,-0.038,-0.108
1701525752.9099998,19.609,19.609,-19.609,-0.00030000000000000003,0.0001,-0.0444,0.004,-0.036000000000000004,-0.112
1701525752.95,19.609,19.609,-19.609,-0.0021000000000000003,-0.0006000000000000001,-0.0224,-0.018000000000000002,-0.039,-0.127
1701525752.99,19.609,19.609,-19.609,-0.0014,0.0,-0.0089,-0.031,-0.036000000000000004,-0.111
1701525753.03,19.609,19.609,-19.609,-0.0004,-0.001,0.0036000000000000003,-0.018000000000000002,-0.046,-0.097
1701525753.07,19.609,19.609,-19.609,0.0017000000000000001,-0.0002,-0.0324,0.009000000000000001,-0.037,-0.10200000000000001
1701525753.11,19.609,19.609,-19.609,-0.0006000000000000001,-0.0009000000000000001,0.032600000000000004,0.032,-0.03,-0.098
1701525753.1499999,19.609,19.609,-19.609,0.0021000000000000003,0.0001,0.0023,0.026000000000000002,-0.03,-0.113
1701525753.19,19.609,19.609,-19.609,-0.0008,-0.00030000000000000003,-0.0151,-0.01,-0.038,-0.122
1701525753.23,19.609,19.609,-19.609,-0.0023,-0.00030000000000000003,0.011300000000000001,-0.009000000000000001,-0.048,-0.133
1701525753.27,19.609,19.609,-19.609,0.0005,0.0004,-0.0366,-0.016,-0.063,-0.111
1701525753.31,19.609,19.609,-19.609,-0.0005,-0.0006000000000000001,0.018600000000000002,-0.006,-0.059000000000000004,-0.11800000000000001
1701525753.35,19.609,19.609,-19.609,0.0034000000000000002,0.0001,0.015300000000000001,0.006,-0.053,-0.111
1701525753.3899999,19.609,19.609,-19.609,0.0002,-0.0017000000000000001,-0.0328,0.002,-0.056,-0.112
1701525753.43,19.609,19.609,-19.609,0.00030000000000000003,0.0,0.031,0.006,-0.046,-0.123
1701525753.47,19.609,19.609,-19.609,-0.0009000000000000001,-0.0002,-0.0253,-0.008,-0.033,-0.133
1701525753.51,19.609,19.609,-19.609,-0.0018000000000000002,0.0005,0.0252,-0.032,-0.038,-0.14
1701525753.55,19.609,19.609,-19.609,-0.0001,0.0005,-0.0036000000000000003,-0.045,-0.029,-0.138
1701525753.59,19.609,19.609,-19.609,0.0012000000000000001,-0.002,0.009300000000000001,-0.04,-0.059000000000000004,-0.138
1701525753.6299999,19.609,19.609,-19.609,0.0004,0.0008,-0.0261,-0.008,-0.047,-0.133
1701525753.67,19.609,19.609,-19.609,-0.0019,0.0007,0.0205,-0.005,-0.058,-0.123
1701525753.71,19.609,19.609,-19.609,0.0,0.0,-0.024300000000000002,-0.034,-0.082,-0.134
1701525753.75,19.609,19.609,-19.609,-0.0019,-0.00030000000000000003,0.0151,-0.052000000000000005,-0.075,-0.122
1701525753.79,19.609,19.609,-19.609,0.0008,0.0001,-0.0001,-0.043000000000000003,-0.054,-0.113
1701525753.83,19.609,19.609,-19.609,0.0007,0.00030000000000000003,0.0002,0.023,-0.029,-0.126
1701525753.87,19.609,19.609,-19.609,-0.0006000000000000001,-0.0009000000000000001,-0.0291,0.014,-0.03,-0.123
1701525753.91,19.609,19.609,-19.609,0.0008,-0.0012000000000000001,0.0443,-0.003,-0.01,-0.114
1701525753.95,19.609,19.609,-19.609,0.0005,-0.0004,-0.014,-0.01,-0.069,-0.12
1701525753.99,19.609,19.609,-19.609,-0.0025,-0.0012000000000000001,-0.0702,-0.009000000000000001,-0.065,-0.124
1701525754.03,19.609,19.609,-19.609,0.0,-0.0007,0.0687,0.026000000000000002,-0.061,-0.114
1701525754.07,19.609,19.609,-19.609,0.0022,-0.0014,-0.045200000000000004,0.002,-0.03,-0.11
1701525754.11,19.609,19.609,-19.609,0.0014,0.0006000000000000001,0.040100000000000004,0.016,-0.017,-0.11800000000000001
1701525754.15,19.609,19.609,-19.609,0.0023,0.0015,-0.0415,0.016,-0.032,-0.126
1701525754.19,19.609,19.609,-19.609,-0.001,-0.0012000000000000001,0.037700000000000004,0.007,-0.046,-0.139
1701525754.23,19.609,19.609,-19.609,-0.0004,0.0001,-0.0339,-0.009000000000000001,-0.051000000000000004,-0.136
1701525754.27,19.609,19.609,-19.609,-0.0014,0.0001,0.0317,-0.023,-0.04,-0.129
1701525754.31,19.609,19.609,-19.609,-0.00030000000000000003,0.0,-0.0125,-0.001,-0.033,-0.124
1701525754.35,19.609,19.609,-19.609,0.002,-0.00030000000000000003,0.0129,0.02,-0.031,-0.123
1701525754.39,19.609,19.609,-19.609,-0.0004,0.00030000000000000003,0.0001,0.014,-0.039,-0.125
1701525754.43,19.609,19.609,-19.609,-0.0017000000000000001,-0.00030000000000000003,-0.0016,-0.012,-0.055,-0.136
1701525754.47,19.609,19.609,-19.609,0.0011,0.0007,-0.0459,-0.034,-0.045,-0.123
1701525754.51,19.609,19.609,-19.609,-0.0013000000000000002,-0.0002,0.046,-0.009000000000000001,-0.044,-0.107
1701525754.55,19.609,19.609,-19.609,0.0019,-0.0008,-0.009000000000000001,0.019,-0.055,-0.112
1701525754.59,19.609,19.609,-19.609,-0.0002,0.0012000000000000001,0.0045000000000000005,0.004,-0.056,-0.108
1701525754.63,19.609,19.609,-19.609,-0.00030000000000000003,0.0021000000000000003,0.0023,-0.026000000000000002,-0.042,-0.105
1701525754.67,19.609,19.609,-19.609,-0.0028,0.0002,-0.0408,-0.025,-0.018000000000000002,-0.10200000000000001
1701525754.71,19.609,19.609,-19.609,-0.0001,-0.0014,0.0325,-0.006,-0.022,-0.1
1701525754.75,19.609,19.609,-19.609,-0.0014,-0.0012000000000000001,-0.0609,0.013000000000000001,-0.036000000000000004,-0.089
1701525754.79,19.609,19.609,-19.609,-0.0015,-0.0009000000000000001,0.0874,0.016,-0.036000000000000004,-0.10200000000000001
1701525754.83,19.609,19.609,-19.609,0.0001,0.0007,0.028300000000000002,-0.005,-0.042,-0.117
1701525754.87,19.609,19.609,-19.609,-0.002,0.0002,-0.0112,-0.024,-0.04,-0.114
1701525754.9099998,19.609,19.609,-19.609,0.002,0.0,-0.0429,-0.015,-0.043000000000000003,-0.122
1701525754.95,19.609,19.609,-19.609,0.0034000000000000002,0.001,0.035300000000000005,-0.002,-0.034,-0.111
1701525754.99,19.609,19.609,-19.609,0.0012000000000000001,0.00030000000000000003,-0.052500000000000005,0.013000000000000001,-0.035,-0.109
1701525755.03,19.609,19.609,-19.609,0.001,-0.0001,0.0471,0.011,-0.037,-0.108
1701525755.07,19.609,19.609,-19.609,-0.0005,-0.0001,0.0006000000000000001,-0.003,-0.052000000000000005,-0.115
1701525755.11,19.609,19.609,-19.609,0.002,0.0007,-0.003,-0.007,-0.046,-0.125
1701525755.1499999,19.609,19.609,-19.609,-0.0027,0.0006000000000000001,0.0008,-0.011,-0.056,-0.132
1701525755.19,19.609,19.609,-19.609,-0.001,0.0026000000000000003,-0.043500000000000004,-0.019,-0.046,-0.138
1701525755.23,19.609,19.609,-19.609,0.0007,0.0012000000000000001,0.047400000000000005,-0.025,-0.035,-0.109
1701525755.27,19.609,19.609,-19.609,-0.0036000000000000003,0.0012000000000000001,-0.0224,-0.006,-0.034,-0.098
1701525755.31,19.609,19.609,-19.609,-0.00030000000000000003,-0.0005,0.0213,0.024,-0.049,-0.098
1701525755.35,19.609,19.609,-19.609,-0.0012000000000000001,0.0,-0.001,0.021,-0.051000000000000004,-0.1
1701525755.3899999,19.609,19.609,-19.609,-0.001,0.00030000000000000003,-0.0437,0.004,-0.045,-0.113
1701525755.43,19.609,19.609,-19.609,-0.0026000000000000003,0.0014,0.0235,-0.005,-0.051000000000000004,-0.133
1701525755.47,19.609,19.609,-19.609,-0.0018000000000000002,0.0006000000000000001,-0.0545,-0.037,-0.056,-0.125
1701525755.51,19.609,19.609,-19.609,-0.0026000000000000003,0.0008,0.0726,-0.012,-0.058,-0.131
1701525755.55,19.609,19.609,-19.609,0.00030000000000000003,0.0009000000000000001,-0.0253,-0.011,-0.034,-0.122
1701525755.59,19.609,19.609,-19.609,-0.0019,-0.001,0.0212,-0.007,-0.052000000000000005,-0.107
1701525755.6299999,19.609,19.609,-19.609,0.0014,0.0007,0.0046,0.007,-0.045,-0.11
1701525755.67,19.609,19.609,-19.609,-0.0011,-0.0017000000000000001,-0.0579,0.037,-0.029,-0.122
1701525755.71,19.609,19.609,-19.609,-0.0012000000000000001,0.0016,0.0521,-0.013000000000000001,-0.032,-0.129
1701525755.75,19.609,19.609,-19.609,0.0018000000000000002,0.0007,-0.0468,-0.03,-0.03,-0.133
1701525755.79,19.609,19.609,-19.609,0.0,-0.0002,0.045200000000000004,-0.002,-0.042,-0.138
1701525755.83,19.609,19.609,-19.609,-0.0001,0.0002,0.007500000000000001,-0.006,-0.05,-0.128
1701525755.87,19.609,19.609,-19.609,0.0001,-0.001,-0.032600000000000004,-0.008,-0.052000000000000005,-0.125
1701525755.91,19.609,19.609,-19.609,0.0004,0.00030000000000000003,0.028800000000000003,-0.009000000000000001,-0.049,-0.122
1701525755.95,19.609,19.609,-19.609,-0.002,-0.001,-0.052000000000000005,-0.02,-0.038,-0.106
1701525755.99,19.609,19.609,-19.609,0.0012000000000000001,0.0006000000000000001,0.057,-0.001,-0.034,-0.1
1701525756.03,19.609,19.609,-19.609,-0.001,-0.0006000000000000001,-0.046900000000000004,0.016,-0.037,-0.11900000000000001
1701525756.07,19.609,19.609,-19.609,-0.0016,-0.0022,0.024200000000000003,-0.01,-0.047,-0.124
1701525756.11,19.609,19.609,-19.609,0.0004,-0.0023,0.0166,-0.022,-0.047,-0.116
1701525756.15,19.609,19.609,-19.609,-0.0014,-0.0014,0.0001,-0.012,-0.044,-0.126
1701525756.19,19.609,19.609,-19.609,0.0,0.0014,-0.041800000000000004,-0.012,-0.048,-0.11900000000000001
1701525756.23,19.609,19.609,-19.609,0.0011,0.00030000000000000003,0.0419,-0.011,-0.049,-0.109
1701525756.27,19.609,19.609,-19.609,-0.00030000000000000003,-0.0009000000000000001,-0.0134,0.002,-0.042,-0.116
1701525756.31,19.609,19.609,-19.609,-0.0004,-0.0006000000000000001,0.007,-0.006,-0.046,-0.11
1701525756.35,19.609,19.609,-19.609,0.0028,0.0007,-0.0308,-0.009000000000000001,-0.058,-0.106
1701525756.39,19.609,19.609,-19.609,0.0004,-0.0002,0.025,-0.007,-0.052000000000000005,-0.116
1701525756.43,19.609,19.609,-19.609,-0.0013000000000000002,0.0018000000000000002,-0.0509,-0.005,-0.044,-0.116
1701525756.47,19.609,19.609,-19.609,0.0028,0.00030000000000000003,0.0618,0.0,-0.03,-0.12
1701525756.51,19.609,19.609,-19.609,-0.0018000000000000002,0.0026000000000000003,-0.008,0.0,-0.031,-0.126
1701525756.55,19.609,19.609,-19.609,0.0017000000000000001,-0.00030000000000000003,-0.028800000000000003,-0.011,-0.026000000000000002,-0.125
1701525756.59,19.609,19.609,-19.609,0.005,-0.0012000000000000001,-0.033800000000000004,-0.013000000000000001,-0.028,-0.127
1701525756.63,19.609,19.609,-19.609,0.0,-0.0012000000000000001,0.027100000000000003,-0.007,-0.039,-0.131
1701525756.67,19.609,19.609,-19.609,0.0009000000000000001,-0.0025,-0.044000000000000004,0.0,-0.029,-0.115
1701525756.71,19.609,19.609,-19.609,0.0001,0.0016,0.0366,0.003,-0.031,-0.11900000000000001
1701525756.75,19.609,19.609,-19.609,-0.0015,-0.0004,-0.048600000000000004,0.005,-0.036000000000000004,-0.135
1701525756.79,19.609,19.609,-19.609,-0.0001,0.0008,0.0458,-0.005,-0.049,-0.129
1701525756.83,19.609,19.609,-19.609,0.0004,0.0,0.0067,-0.006,-0.049,-0.132
1701525756.87,19.609,19.609,-19.609,-0.0023,-0.0004,-0.035500000000000004,-0.002,-0.05,-0.127
1701525756.9099998,19.609,19.609,-19.609,-0.0016,0.0011,0.0335,-0.003,-0.053,-0.123
1701525756.95,19.609,19.609,-19.609,0.0005,-0.0004,-0.0378,0.0,-0.047,-0.109
1701525756.99,19.609,19.609,-19.609,-0.0004,0.0,0.0333,0.009000000000000001,-0.037,-0.123
1701525757.03,19.609,19.609,-19.609,0.0,0.00030000000000000003,0.0043,-0.019,-0.049,-0.128
1701525757.07,19.609,19.609,-19.609,0.00030000000000000003,-0.0027,-0.0213,-0.022,-0.054,-0.126
1701525757.11,19.609,19.609,-19.609,0.001,0.0005,0.019100000000000002,-0.02,-0.052000000000000005,-0.126
1701525757.1499999,19.609,19.609,-19.609,0.001,-0.0005,-0.0675,-0.005,-0.059000000000000004,-0.131
1701525757.19,19.609,19.609,-19.609,-0.0007,-0.0009000000000000001,0.0584,0.0,-0.045,-0.126
1701525757.23,19.609,19.609,-19.609,0.001,-0.0009000000000000001,-0.0307,-0.027,-0.038,-0.109
1701525757.27,19.609,19.609,-19.609,-0.0033,-0.0006000000000000001,0.027,-0.012,-0.038,-0.093
1701525757.31,19.609,19.609,-19.609,-0.0006000000000000001,0.001,-0.0497,0.003,-0.046,-0.089
1701525757.35,19.609,19.609,-19.609,-0.005,-0.0014,0.0567,0.009000000000000001,-0.015,-0.105
1701525757.3899999,19.609,19.609,-19.609,-0.0023,-0.00030000000000000003,0.0059,-0.001,-0.028,-0.095
1701525757.43,19.609,19.609,-19.609,0.001,0.0018000000000000002,-0.0346,-0.005,-0.052000000000000005,-0.106
1701525757.47,19.609,19.609,-19.609,0.0001,0.0014,0.013900000000000001,-0.002,-0.034,-0.124
1701525757.51,19.609,19.609,-19.609,-0.00030000000000000003,0.0011,0.0108,-0.023,-0.047,-0.127
1701525757.55,19.609,19.609,-19.609,-0.0006000000000000001,-0.0008,0.0066,-0.023,-0.061,-0.129
1701525757.59,19.609,19.609,-19.609,0.0,0.0006000000000000001,-0.045200000000000004,-0.001,-0.024,-0.126
1701525757.6299999,19.609,19.609,-19.609,0.0022,0.0,0.049300000000000004,-0.001,-0.03,-0.126
1701525757.67,19.609,19.609,-19.609,-0.0013000000000000002,-0.00030000000000000003,0.0026000000000000003,-0.007,-0.036000000000000004,-0.124
1701525757.71,19.609,19.609,-19.609,0.0014,0.0013000000000000002,-0.0408,-0.003,-0.036000000000000004,-0.132
1701525757.75,19.609,19.609,-19.609,0.0001,-0.0023,0.034800000000000005,-0.005,-0.041,-0.137
1701525757.79,19.609,19.609,-19.609,-0.0002,0.0018000000000000002,0.0056,-0.017,-0.045,-0.125
1701525757.83,19.609,19.609,-19.609,0.001,-0.0017000000000000001,-0.0376,-0.011,-0.044,-0.12
1701525757.87,19.609,19.609,-19.609,0.00030000000000000003,0.0009000000000000001,-0.0448,-0.006,-0.048,-0.101
1701525757.91,19.609,19.609,-19.609,0.0006000000000000001,-0.0006000000000000001,0.06760000000000001,0.003,-0.048,-0.092
1701525757.95,19.609,19.609,-19.609,-0.001,-0.0004,-0.0055000000000000005,0.023,-0.041,-0.095
1701525757.99,19.609,19.609,-19.609,-0.0001,0.0,-0.02,0.028,-0.037,-0.11800000000000001
1701525758.03,19.609,19.609,-19.609,-0.0007,0.0,-0.0429,0.0,-0.051000000000000004,-0.127
1701525758.07,19.609,19.609,-19.609,0.0013000000000000002,-0.0001,0.061700000000000005,-0.03,-0.049,-0.139
1701525758.11,19.609,19.609,-19.609,-0.0002,0.0007,-0.0708,-0.039,-0.054,-0.124
1701525758.15,19.609,19.609,-19.609,-0.0021000000000000003,0.0012000000000000001,0.047400000000000005,-0.01,-0.052000000000000005,-0.107
1701525758.19,19.609,19.609,-19.609,-0.0017000000000000001,-0.0005,0.0097,0.032,-0.039,-0.114
1701525758.23,19.609,19.609,-19.609,0.0005,0.0007,-0.0351,0.019,-0.037,-0.121
1701525758.27,19.609,19.609,-19.609,0.0007,0.0013000000000000002,0.0345,-0.013000000000000001,-0.026000000000000002,-0.129
1701525758.31,19.609,19.609,-19.609,0.0011,0.001,-0.0034000000000000002,-0.033,-0.021,-0.139
1701525758.35,19.609,19.609,-19.609,-0.0015,-0.002,-0.0499,-0.027,-0.028,-0.14400000000000002
1701525758.39,19.609,19.609,-19.609,0.0001,-0.0001,0.0441,-0.015,-0.043000000000000003,-0.125
1701525758.43,19.609,19.609,-19.609,0.0007,-0.0009000000000000001,-0.0291,0.006,-0.05,-0.109
1701525758.47,19.609,19.609,-19.609,-0.0001,-0.0006000000000000001,-0.0427,0.003,-0.057,-0.10200000000000001
1701525758.51,19.609,19.609,-19.609,-0.0002,-0.0006000000000000001,-0.043300000000000005,-0.003,-0.067,-0.111
1701525758.55,19.609,19.609,-19.609,0.0,0.0015,0.0713,0.003,-0.046,-0.115
1701525758.59,19.609,19.609,-19.609,-0.0012000000000000001,-0.001,-0.0077,-0.002,-0.044,-0.11800000000000001
1701525758.63,19.609,19.609,-19.609,0.001,0.0007,-0.0172,-0.018000000000000002,-0.036000000000000004,-0.116
1701525758.67,19.609,19.609,-19.609,-0.0011,-0.0016,0.0083,-0.021,-0.037,-0.113
1701525758.71,19.609,19.609,-19.609,-0.0005,0.0,-0.0451,-0.004,-0.047,-0.114
1701525758.75,19.609,19.609,-19.609,0.0006000000000000001,0.0014,0.0332,-0.012,-0.051000000000000004,-0.105
1701525758.79,19.609,19.609,-19.609,0.0007,0.0001,0.0172,-0.012,-0.047,-0.113
1701525758.83,19.609,19.609,-19.609,0.0006000000000000001,-0.0016,-0.0381,0.004,-0.017,-0.105
1701525758.87,19.609,19.609,-19.609,0.00030000000000000003,-0.0007,0.0432,0.01,-0.028,-0.108
1701525758.9099998,19.609,19.609,-19.609,0.002,-0.001,-0.007500000000000001,0.0,-0.043000000000000003,-0.107
1701525758.95,19.609,19.609,-19.609,-0.0019,-0.0007,0.0045000000000000005,-0.004,-0.057,-0.11
1701525758.99,19.609,19.609,-19.609,0.0002,-0.0009000000000000001,-0.0328,-0.01,-0.051000000000000004,-0.112
1701525759.03,19.609,19.609,-19.609,0.00030000000000000003,-0.0024000000000000002,0.0279,-0.006,-0.052000000000000005,-0.122
1701525759.07,19.609,19.609,-19.609,0.0008,0.0016,-0.051300000000000005,-0.019,-0.048,-0.117
1701525759.11,19.609,19.609,-19.609,0.0,-0.0001,0.051800000000000006,-0.014,-0.055,-0.107
1701525759.1499999,19.609,19.609,-19.609,0.0,-0.0022,-0.0325,-0.003,-0.05,-0.121
1701525759.19,19.609,19.609,-19.609,0.0,0.0011,0.027,-0.016,-0.049,-0.121
1701525759.23,19.609,19.609,-19.609,-0.0011,-0.00030000000000000003,0.0086,-0.024,-0.045,-0.129
1701525759.27,19.609,19.609,-19.609,0.0031000000000000003,0.00030000000000000003,-0.0385,-0.022,-0.036000000000000004,-0.121
1701525759.31,19.609,19.609,-19.609,0.0001,-0.00030000000000000003,0.029500000000000002,-0.017,-0.029,-0.122
1701525759.35,19.609,19.609,-19.609,0.0024000000000000002,0.0,-0.031,-0.012,-0.041,-0.111
1701525759.3899999,19.609,19.609,-19.609,-0.0012000000000000001,-0.0007,0.0313,0.005,-0.076,-0.116
1701525759.43,19.609,19.609,-19.609,0.0037,0.0001,-0.05,0.011,-0.038,-0.107
1701525759.47,19.609,19.609,-19.609,-0.0032,0.00030000000000000003,0.0455,0.003,-0.07200000000000001,-0.114
1701525759.51,19.609,19.609,-19.609,-0.0007,0.0,-0.0357,-0.01,-0.04,-0.125
1701525759.55,19.609,19.609,-19.609,-0.00030000000000000003,-0.0021000000000000003,0.033,-0.014,-0.04,-0.109
1701525759.59,19.609,19.609,-19.609,-0.0008,-0.0008,-0.0636,-0.003,-0.036000000000000004,-0.126
1701525759.6299999,19.609,19.609,-19.609,-0.0004,0.001,0.0693,-0.014,-0.038,-0.131
1701525759.67,19.609,19.609,-19.609,-0.0012000000000000001,-0.0015,-0.0017000000000000001,-0.014,-0.037,-0.124
1701525759.71,19.609,19.609,-19.609,0.0012000000000000001,-0.0017000000000000001,-0.038900000000000004,-0.012,-0.029,-0.126
1701525759.75,19.609,19.609,-19.609,0.0005,-0.0024000000000000002,0.0386,0.0,-0.047,-0.131
1701525759.79,19.609,19.609,-19.609,0.0017000000000000001,-0.00030000000000000003,-0.046700000000000005,-0.008,-0.046,-0.116
1701525759.83,19.609,19.609,-19.609,-0.0006000000000000001,0.001,0.045700000000000005,-0.001,-0.043000000000000003,-0.112
1701525759.87,19.609,19.609,-19.609,0.0001,-0.0021000000000000003,-0.054700000000000006,0.003,-0.044,-0.123
1701525759.91,19.609,19.609,-19.609,-0.0001,-0.0014,0.0472,-0.005,-0.059000000000000004,-0.12
1701525759.95,19.609,19.609,-19.609,-0.0004,0.0021000000000000003,-0.0167,-0.016,-0.061,-0.11900000000000001
1701525759.99,19.609,19.609,-19.609,0.0014,0.0002,0.0175,-0.001,-0.057,-0.12
1701525760.03,19.609,19.609,-19.609,-0.0025,-0.0007,-0.0025,-0.001,-0.063,-0.113
1701525760.07,19.609,19.609,-19.609,0.0032,-0.00030000000000000003,-0.046200000000000005,-0.01,-0.048,-0.111
1701525760.11,19.609,19.609,-19.609,0.0007,-0.001,0.0184,0.018000000000000002,-0.028,-0.117
1701525760.15,19.609,19.609,-19.609,-0.0025,-0.0014,-0.0541,0.023,-0.041,-0.121
1701525760.19,19.609,19.609,-19.609,-0.0004,0.00030000000000000003,0.07490000000000001,0.004,-0.057,-0.132
1701525760.23,19.609,19.609,-19.609,-0.004,-0.0021000000000000003,-0.0023,-0.059000000000000004,-0.049,-0.131
1701525760.27,19.609,19.609,-19.609,-0.0004,0.001,-0.061000000000000006,-0.067,-0.048,-0.11
1701525760.31,19.609,19.609,-19.609,0.0012000000000000001,-0.0002,-0.062,0.0,-0.053,-0.116
1701525760.35,19.609,19.609,-19.609,-0.004,-0.0014,0.0347,0.025,-0.042,-0.121
1701525760.39,19.609,19.609,-19.609,-0.0009000000000000001,0.00030000000000000003,-0.0347,-0.009000000000000001,-0.033,-0.107
1701525760.43,19.609,19.609,-19.609,-0.0029000000000000002,0.0007,0.027800000000000002,-0.029,-0.021,-0.111
1701525760.47,19.609,19.609,-19.609,0.0004,-0.0009000000000000001,0.0036000000000000003,-0.02,-0.016,-0.116
1701525760.51,19.609,19.609,-19.609,-0.0017000000000000001,-0.0015,-0.0012000000000000001,-0.016,-0.023,-0.109
1701525760.55,19.609,19.609,-19.609,0.0015,-0.001,-0.050300000000000004,-0.012,-0.021,-0.1
1701525760.59,19.609,19.609,-19.609,-0.001,-0.0007,0.048,0.005,-0.021,-0.111
1701525760.63,19.609,19.609,-19.609,-0.0016,-0.0011,0.0059,0.009000000000000001,-0.036000000000000004,-0.106
1701525760.67,19.609,19.609,-19.609,-0.00030000000000000003,-0.0011,-0.0143,-0.002,-0.04,-0.111
1701525760.71,19.609,19.609,-19.609,0.0021000000000000003,-0.0006000000000000001,0.0043,-0.005,-0.034,-0.12
1701525760.75,19.609,19.609,-19.609,-0.0023,-0.0013000000000000002,0.006900000000000001,-0.017,-0.037,-0.113
1701525760.79,19.609,19.609,-19.609,-0.0021000000000000003,0.0007,-0.0531,-0.007,-0.046,-0.116
1701525760.83,19.609,19.609,-19.609,0.001,0.0,0.0468,0.004,-0.042,-0.115
1701525760.87,19.609,19.609,-19.609,0.0,0.0016,0.007,0.044,-0.038,-0.124
1701525760.9099998,19.609,19.609,-19.609,0.0006000000000000001,-0.001,-0.027,-0.008,-0.033,-0.133
1701525760.95,19.609,19.609,-19.609,0.0015,0.0001,0.0291,-0.027,-0.033,-0.114
1701525760.99,19.609,19.609,-19.609,-0.0012000000000000001,0.0,-0.0543,-0.004,-0.034,-0.112
1701525761.03,19.609,19.609,-19.609,-0.0013000000000000002,-0.0004,0.0489,0.038,-0.041,-0.11800000000000001
1701525761.07,19.609,19.609,-19.609,-0.0015,0.0012000000000000001,-0.0239,-0.007,-0.051000000000000004,-0.115
1701525761.11,19.609,19.609,-19.609,-0.0009000000000000001,-0.0004,0.0339,-0.024,-0.04,-0.11
1701525761.1499999,19.609,19.609,-19.609,-0.0004,-0.00030000000000000003,-0.058600000000000006,-0.02,-0.034,-0.11
1701525761.19,19.609,19.609,-19.609,-0.00030000000000000003,-0.0006000000000000001,0.0522,-0.004,-0.041,-0.1
1701525761.23,19.609,19.609,-19.609,-0.0018000000000000002,0.0014,-0.0043,0.004,-0.043000000000000003,-0.094
1701525761.27,19.609,19.609,-19.609,0.0018000000000000002,-0.001,-0.0108,0.027,-0.035,-0.115
1701525761.31,19.609,19.609,-19.609,-0.0005,0.0004,-0.0302,0.011,-0.041,-0.13
1701525761.35,19.609,19.609,-19.609,0.0007,-0.0012000000000000001,-0.019200000000000002,-0.011,-0.059000000000000004,-0.128
1701525761.3899999,19.609,19.609,-19.609,-0.0022,0.0,0.045700000000000005,-0.027,-0.043000000000000003,-0.135
1701525761.43,19.609,19.609,-19.609,-0.0007,-0.00030000000000000003,-0.0396,-0.018000000000000002,-0.046,-0.131
1701525761.47,19.609,19.609,-19.609,0.0006000000000000001,0.0017000000000000001,0.0468,-0.018000000000000002,-0.054,-0.11800000000000001
1701525761.51,19.609,19.609,-19.609,-0.0011,-0.0004,-0.0648,0.002,-0.044,-0.122
1701525761.55,19.609,19.609,-19.609,-0.0004,-0.0007,0.06330000000000001,0.012,-0.027,-0.12
1701525761.59,19.609,19.609,-19.609,0.001,0.0009000000000000001,-0.055,0.002,-0.019,-0.121
1701525761.6299999,19.609,19.609,-19.609,0.00030000000000000003,0.0007,0.0538,-0.029,-0.03,-0.136
1701525761.67,19.609,19.609,-19.609,-0.0001,0.0011,-0.0017000000000000001,-0.028,-0.027,-0.124
1701525761.71,19.609,19.609,-19.609,0.0009000000000000001,0.0013000000000000002,-0.0371,-0.02,-0.034,-0.124
1701525761.75,19.609,19.609,-19.609,0.0001,-0.0006000000000000001,0.0373,-0.009000000000000001,-0.047,-0.12
1701525761.79,19.609,19.609,-19.609,-0.0007,0.00030000000000000003,-0.0538,-0.009000000000000001,-0.053,-0.114
1701525761.83,19.609,19.609,-19.609,0.0014,0.001,0.054200000000000005,-0.004,-0.039,-0.11
1701525761.87,19.609,19.609,-19.609,-0.0034000000000000002,-0.0001,-0.0054,-0.014,-0.037,-0.11800000000000001
1701525761.91,19.609,19.609,-19.609,0.00030000000000000003,-0.0002,-0.0126,-0.019,-0.039,-0.111
1701525761.95,19.609,19.609,-19.609,0.0015,0.0001,-0.004,-0.012,-0.047,-0.112
1701525761.99,19.609,19.609,-19.609,-0.0018000000000000002,0.0011,-0.020300000000000002,-0.005,-0.044,-0.115
1701525762.03,19.609,19.609,-19.609,-0.0025,0.001,0.025400000000000002,-0.006,-0.042,-0.107
1701525762.07,19.609,19.609,-19.609,-0.0012000000000000001,-0.0004,-0.014400000000000001,-0.005,-0.044,-0.108
1701525762.11,19.609,19.609,-19.609,-0.0007,-0.001,0.028,-0.007,-0.041,-0.105
1701525762.15,19.609,19.609,-19.609,0.0007,-0.0016,0.0405,-0.007,-0.039,-0.101
1701525762.19,19.609,19.609,-19.609,-0.0015,-0.002,-0.0407,-0.003,-0.051000000000000004,-0.106
1701525762.23,19.609,19.609,-19.609,0.0005,0.0023,0.0234,0.007,-0.048,-0.11
1701525762.27,19.609,19.609,-19.609,-0.0008,0.0005,0.0175,0.005,-0.048,-0.111
1701525762.31,19.609,19.609,-19.609,-0.0017000000000000001,0.0009000000000000001,-0.004,-0.006,-0.046,-0.124
1701525762.35,19.609,19.609,-19.609,0.0012000000000000001,-0.0007,-0.0267,-0.011,-0.04,-0.113
1701525762.39,19.609,19.609,-19.609,0.0001,-0.0006000000000000001,0.0273,-0.005,-0.025,-0.111
1701525762.43,19.609,19.609,-19.609,0.0014,0.0006000000000000001,-0.0506,0.003,-0.032,-0.126
1701525762.47,19.609,19.609,-19.609,0.0011,-0.0012000000000000001,0.0458,0.004,-0.039,-0.123
1701525762.51,19.609,19.609,-19.609,0.0004,0.0007,-0.012400000000000001,0.0,-0.041,-0.127
1701525762.55,19.609,19.609,-19.609,-0.0007,-0.0007,-0.0485,-0.008,-0.03,-0.123
1701525762.59,19.609,19.609,-19.609,-0.0031000000000000003,-0.0008,0.059300000000000005,-0.002,-0.034,-0.127
1701525762.63,19.609,19.609,-19.609,0.0015,0.0007,0.007500000000000001,-0.007,-0.042,-0.116
1701525762.67,19.609,19.609,-19.609,-0.0019,0.0004,0.0039000000000000003,0.0,-0.037,-0.126
1701525762.71,19.609,19.609,-19.609,-0.0006000000000000001,-0.0013000000000000002,-0.0456,-0.004,-0.045,-0.128
1701525762.75,19.609,19.609,-19.609,0.0007,0.0019,0.0379,-0.053,-0.041,-0.121
1701525762.79,19.609,19.609,-19.609,-0.0001,-0.0012000000000000001,-0.011600000000000001,-0.015,-0.031,-0.139
1701525762.83,19.609,19.609,-19.609,-0.0001,0.0004,0.0064,-0.004,-0.034,-0.14400000000000002
1701525762.87,19.609,19.609,-19.609,-0.0013000000000000002,-0.001,-0.031,0.004,-0.065,-0.155
1701525762.9099998,19.609,19.609,-19.609,0.0019,0.0015,0.024800000000000003,0.045,-0.082,-0.18
1701525762.95,19.609,19.609,-19.609,0.0001,-0.0015,-0.053000000000000005,-0.028,-0.082,-0.17400000000000002
1701525762.99,19.609,19.609,-19.609,0.0004,-0.0007,0.056100000000000004,-0.043000000000000003,-0.093,-0.169
1701525763.03,19.609,19.609,-19.609,-0.002,-0.0008,-0.025,-0.061,-0.092,-0.182
1701525763.07,19.609,19.609,-19.609,-0.002,-0.0004,-0.0332,-0.08,-0.10400000000000001,-0.179
1701525763.11,19.609,19.609,-19.609,-0.0029000000000000002,-0.001,0.057800000000000004,-0.07,-0.115,-0.164
1701525763.1499999,19.609,19.609,-19.609,0.0006000000000000001,0.0018000000000000002,-0.007200000000000001,-0.058,-0.14400000000000002,-0.17300000000000001
1701525763.19,19.609,19.609,-19.609,-0.0016,0.0006000000000000001,-0.0386,-0.093,-0.163,-0.158
1701525763.23,19.609,19.609,-19.609,-0.0004,0.0,0.032600000000000004,-0.28600000000000003,-0.219,-0.08600000000000001
1701525763.27,19.609,19.609,-19.609,-0.002,0.0004,0.0029000000000000002,-0.529,-0.308,0.019
1701525763.31,19.609,19.609,-19.609,-0.0023,0.0006000000000000001,-0.0001,-0.775,-0.322,0.06
1701525763.35,19.609,19.609,-19.609,0.0015,0.0001,-0.025900000000000003,-0.718,-0.327,-0.002
1701525763.3899999,19.609,19.609,-19.609,0.0016,-0.001,0.018000000000000002,-0.596,-0.28500000000000003,-0.094
1701525763.43,19.609,19.609,-19.609,0.001,-0.0009000000000000001,-0.027100000000000003,-0.586,-0.227,-0.153
1701525763.47,19.609,19.609,-19.609,-0.001,0.0004,0.0263,-0.499,-0.183,-0.216
1701525763.51,19.609,19.609,-19.609,0.0021000000000000003,0.0002,-0.0506,-0.399,-0.106,-0.271
1701525763.55,19.609,19.609,-19.609,0.0001,0.0009000000000000001,0.036500000000000005,-0.337,-0.117,-0.326
1701525763.59,19.609,19.609,-19.609,-0.0016,0.0006000000000000001,0.01,-0.227,-0.124,-0.376
1701525763.6299999,19.609,19.609,-19.609,0.0001,-0.0002,0.010100000000000001,-0.23800000000000002,-0.115,-0.377
1701525763.67,19.609,19.609,-19.609,-0.0021000000000000003,-0.0007,-0.033600000000000005,-0.241,-0.127,-0.366
1701525763.71,19.609,19.609,-19.609,0.0035,-0.0002,0.0152,-0.197,-0.109,-0.371
1701525763.75,19.609,19.609,-19.609,0.0012000000000000001,0.0002,0.0167,-0.09,-0.107,-0.392
1701525763.79,19.609,19.609,-19.609,0.0014,0.0009000000000000001,-0.0068000000000000005,-0.033,-0.10200000000000001,-0.375
1701525763.83,19.609,19.609,-19.609,-0.0011,-0.0025,0.0089,0.015,-0.092,-0.371
1701525763.87,19.609,19.609,-19.609,0.0026000000000000003,0.0007,0.0055000000000000005,0.01,-0.085,-0.374
1701525763.91,19.609,19.609,-19.609,-0.0028,0.0005,-0.0309,-0.013000000000000001,-0.035,-0.35100000000000003
1701525763.95,19.609,19.609,-19.609,-0.0009000000000000001,0.0014,0.0126,-0.038,0.021,-0.338
1701525763.99,19.609,19.609,-19.609,0.0009000000000000001,-0.0023,-0.0261,-0.045,0.07,-0.334
1701525764.03,19.609,19.609,-19.609,-0.001,0.00030000000000000003,-0.0111,-0.044,0.10300000000000001,-0.307
1701525764.07,19.609,19.609,-19.609,-0.0028,-0.001,0.0012000000000000001,-0.015,0.108,-0.276
1701525764.11,19.609,19.609,-19.609,-0.0001,-0.00030000000000000003,-0.038200000000000005,0.008,0.082,-0.25
1701525764.15,19.609,19.609,-19.609,-0.0009000000000000001,0.0,0.0364,0.027,0.051000000000000004,-0.218
1701525764.19,19.609,19.609,-19.609,-0.0012000000000000001,-0.0001,-0.0029000000000000002,0.031,0.043000000000000003,-0.191
1701525764.23,19.609,19.609,-19.609,0.0026000000000000003,-0.0017000000000000001,-0.0507,0.01,0.027,-0.17500000000000002
1701525764.27,19.609,19.609,-19.609,0.0007,-0.0015,0.0443,-0.005,0.024,-0.159
1701525764.31,19.609,19.609,-19.609,0.0012000000000000001,0.0012000000000000001,-0.0415,-0.037,0.024,-0.166
1701525764.35,19.609,19.609,-19.609,-0.0018000000000000002,0.0031000000000000003,0.038200000000000005,-0.047,0.028,-0.183
1701525764.39,19.609,19.609,-19.609,0.0029000000000000002,-0.0016,-0.0001,-0.073,0.02,-0.179
1701525764.43,19.609,19.609,-19.609,-0.00030000000000000003,-0.0001,-0.0357,-0.054,0.016,-0.176
1701525764.47,19.609,19.609,-19.609,-0.0014,-0.0007,0.033,-0.056,-0.028,-0.169
1701525764.51,19.609,19.609,-19.609,-0.00030000000000000003,-0.0004,-0.0308,-0.039,0.01,-0.151
1701525764.55,19.609,19.609,-19.609,-0.0004,-0.0005,-0.0236,-0.016,0.007,-0.149
1701525764.59,19.609,19.609,-19.609,0.0,-0.001,0.055200000000000006,-0.005,-0.017,-0.146
1701525764.63,19.609,19.609,-19.609,-0.0002,-0.0006000000000000001,-0.0517,0.011,-0.005,-0.127
1701525764.67,19.609,19.609,-19.609,-0.0002,0.0018000000000000002,0.045700000000000005,0.02,0.008,-0.117
1701525764.71,19.609,19.609,-19.609,0.001,0.0006000000000000001,-0.0227,0.03,-0.009000000000000001,-0.122
1701525764.75,19.609,19.609,-19.609,-0.0006000000000000001,-0.0001,0.0159,0.036000000000000004,-0.025,-0.112
1701525764.79,19.609,19.609,-19.609,0.001,-0.0018000000000000002,0.0128,0.017,-0.022,-0.109
1701525764.83,19.609,19.609,-19.609,-0.0011,-0.0002,-0.0307,0.025,-0.029,-0.109
1701525764.87,19.609,19.609,-19.609,0.0029000000000000002,0.0004,-0.0466,0.001,-0.047,-0.096
1701525764.9099998,19.609,19.609,-19.609,-0.0007,-0.0013000000000000002,0.058800000000000005,-0.003,-0.044,-0.096
1701525764.95,19.609,19.609,-19.609,-0.0006000000000000001,0.0014,0.0166,-0.01,-0.047,-0.105
1701525764.99,19.609,19.609,-19.609,-0.0002,-0.0007,-0.0426,-0.021,-0.048,-0.117
1701525765.03,19.609,19.609,-19.609,-0.0023,-0.0015,0.042,-0.02,-0.045,-0.12
1701525765.07,19.609,19.609,-19.609,-0.0001,0.0017000000000000001,-0.0128,-0.035,-0.051000000000000004,-0.13
1701525765.11,19.609,19.609,-19.609,-0.0012000000000000001,-0.00030000000000000003,0.0032,-0.018000000000000002,-0.038,-0.128
1701525765.1499999,19.609,19.609,-19.609,-0.0018000000000000002,-0.0011,0.0081,-0.011,-0.034,-0.136
1701525765.19,19.609,19.609,-19.609,0.0001,-0.0001,-0.0317,-0.007,-0.042,-0.115
1701525765.23,19.609,19.609,-19.609,-0.0004,-0.001,-0.037200000000000004,0.014,-0.034,-0.112
1701525765.27,19.609,19.609,-19.609,-0.0006000000000000001,-0.0001,0.058,0.026000000000000002,-0.047,-0.11900000000000001
1701525765.31,19.609,19.609,-19.609,-0.002,-0.0017000000000000001,0.0055000000000000005,-0.002,-0.055,-0.116
1701525765.35,19.609,19.609,-19.609,0.0006000000000000001,0.00030000000000000003,-0.036000000000000004,-0.024,-0.05,-0.113
1701525765.3899999,19.609,19.609,-19.609,0.0007,0.0012000000000000001,0.0246,-0.018000000000000002,-0.039,-0.127
1701525765.43,19.609,19.609,-19.609,0.00030000000000000003,-0.0027,-0.0245,-0.015,-0.036000000000000004,-0.122
1701525765.47,19.609,19.609,-19.609,-0.001,-0.0013000000000000002,-0.045700000000000005,-0.019,-0.033,-0.11
1701525765.51,19.609,19.609,-19.609,0.0001,0.0,0.0458,-0.011,-0.033,-0.114
1701525765.55,19.609,19.609,-19.609,0.0013000000000000002,0.0007,-0.038700000000000005,0.001,-0.035,-0.108
1701525765.59,19.609,19.609,-19.609,-0.0001,-0.002,0.060500000000000005,-0.005,-0.051000000000000004,-0.105
1701525765.6299999,19.609,19.609,-19.609,-0.0022,0.0007,-0.0385,0.004,-0.049,-0.10200000000000001
