timestamp,acc_x,acc_y,acc_z,magn_x,magn_y,magn_z,gyro_x,gyro_y,gyro_z
1701526418.414,19.609,19.609,-19.609,0.0025,-0.0013000000000000002,0.0222,-0.013000000000000001,-0.04,-0.112
1701526418.454,19.609,19.609,-19.609,0.0001,-0.0002,0.0507,-0.021,0.507,-0.057
1701526418.494,19.609,19.609,-19.609,0.0004,0.0001,-0.0364,0.019,0.467,-0.047
1701526418.534,19.609,19.609,-19.609,-0.0017000000000000001,0.0006000000000000001,0.015600000000000001,0.045,0.439,-0.051000000000000004
1701526418.574,19.609,19.609,-19.609,0.0001,0.00030000000000000003,-0.009300000000000001,0.08700000000000001,0.41300000000000003,-0.06
1701526418.6139998,19.609,19.609,-19.609,0.0007,0.0007,-0.0037,0.114,0.406,-0.082
1701526418.654,19.609,19.609,-19.609,0.00030000000000000003,-0.0004,0.007,0.20800000000000002,0.418,-0.101
1701526418.694,19.609,19.609,-19.609,-0.00030000000000000003,0.001,0.0092,0.198,0.417,-0.093
1701526418.734,19.609,19.609,-19.609,-0.0005,-0.0002,-0.0379,0.168,0.454,-0.077
1701526418.774,19.609,19.609,-19.609,-0.00030000000000000003,-0.0018000000000000002,0.011600000000000001,0.113,0.442,-0.063
1701526418.814,19.609,19.609,-19.609,-0.0002,0.0018000000000000002,-0.0122,0.041,0.384,-0.078
1701526418.8539999,19.609,19.609,-19.609,0.0006000000000000001,-0.0017000000000000001,0.025400000000000002,0.006,0.338,-0.061
1701526418.894,19.609,19.609,-19.609,0.0017000000000000001,0.001,-0.029900000000000003,-0.009000000000000001,0.264,-0.047
1701526418.934,19.609,19.609,-19.609,-0.0018000000000000002,0.00030000000000000003,0.0171,-0.006,0.194,-0.067
1701526418.974,19.609,19.609,-19.609,-0.0004,-0.001,-0.0322,0.054,0.131,-0.094
1701526419.014,19.609,19.609,-19.609,0.0005,-0.0004,0.0253,0.078,0.112,-0.107
1701526419.054,19.609,19.609,-19.609,0.0021000000000000003,-0.0012000000000000001,-0.027200000000000002,0.09,0.108,-0.11900000000000001
1701526419.0939999,19.609,19.609,-19.609,-0.0007,0.0001,0.019100000000000002,0.113,0.088,-0.113
1701526419.134,19.609,19.609,-19.609,-0.0008,0.0,-0.0347,0.149,0.047,-0.091
1701526419.174,19.609,19.609,-19.609,-0.0002,0.00030000000000000003,0.0035,0.14300000000000002,0.07100000000000001,-0.098
1701526419.214,19.609,19.609,-19.609,-0.0031000000000000003,-0.0004,-0.0548,0.059000000000000004,0.046,-0.112
1701526419.254,19.609,19.609,-19.609,0.0001,-0.0009000000000000001,0.057100000000000005,0.014,0.031,-0.12
1701526419.294,19.609,19.609,-19.609,0.0001,-0.0008,0.0048000000000000004,-0.019,0.014,-0.078
1701526419.3339999,19.609,19.609,-19.609,-0.0009000000000000001,0.0004,-0.015600000000000001,-0.013000000000000001,0.004,-0.078
1701526419.374,19.609,19.609,-19.609,-0.0028,0.0017000000000000001,-0.0223,0.061,0.029,-0.084
1701526419.414,19.609,19.609,-19.609,0.0,0.0001,0.012100000000000001,0.077,0.045,-0.07
1701526419.454,19.609,19.609,-19.609,0.0002,-0.0014,0.0045000000000000005,0.066,0.038,-0.083
1701526419.494,19.609,19.609,-19.609,-0.00030000000000000003,0.0011,-0.0568,0.037,0.005,-0.095
1701526419.534,19.609,19.609,-19.609,0.0021000000000000003,0.0025,0.0419,0.068,-0.018000000000000002,-0.108
1701526419.574,19.609,19.609,-19.609,-0.00030000000000000003,-0.0028,-0.0465,0.192,0.016,-0.09
1701526419.614,19.609,19.609,-19.609,-0.0004,0.0002,0.038900000000000004,0.434,0.075,-0.093
1701526419.654,19.609,19.609,-19.609,0.0001,-0.0004,-0.0286,0.511,0.11800000000000001,-0.096
1701526419.694,19.609,19.609,-19.609,0.0015,0.0005,0.0162,0.381,0.10200000000000001,-0.093
1701526419.734,19.609,19.609,-19.609,-0.0004,0.0005,-0.0334,0.192,0.046,-0.099
1701526419.774,19.609,19.609,-19.609,-0.0017000000000000001,0.0014,0.033100000000000004,-0.08700000000000001,-0.028,-0.083
1701526419.814,19.609,19.609,-19.609,-0.0017000000000000001,-0.0025,-0.042100000000000005,-0.20400000000000001,-0.059000000000000004,-0.091
1701526419.854,19.609,19.609,-19.609,-0.0014,-0.0006000000000000001,0.057800000000000004,-0.273,-0.089,-0.088
1701526419.894,19.609,19.609,-19.609,0.0001,-0.0007,0.032100000000000004,-0.299,-0.101,-0.084
1701526419.934,19.609,19.609,-19.609,-0.00030000000000000003,0.0,-0.0239,-0.273,-0.091,-0.085
1701526419.974,19.609,19.609,-19.609,-0.0006000000000000001,0.001,-0.0429,-0.153,-0.068,-0.092
1701526420.014,19.609,19.609,-19.609,-0.0022,-0.0015,0.0358,-0.095,-0.053,-0.093
1701526420.054,19.609,19.609,-19.609,-0.0007,0.0004,-0.0443,-0.063,-0.045,-0.105
1701526420.094,19.609,19.609,-19.609,0.00030000000000000003,0.0017000000000000001,0.029400000000000003,-0.057,-0.044,-0.113
1701526420.134,19.609,19.609,-19.609,-0.0013000000000000002,0.0019,0.0031000000000000003,-0.036000000000000004,-0.061,-0.113
1701526420.174,19.609,19.609,-19.609,-0.0015,0.0013000000000000002,-0.053200000000000004,-0.034,-0.054,-0.11
1701526420.214,19.609,19.609,-19.609,0.0001,0.001,0.0358,-0.017,-0.046,-0.115
1701526420.254,19.609,19.609,-19.609,0.0014,0.0,-0.022500000000000003,-0.006,-0.053,-0.117
1701526420.294,19.609,19.609,-19.609,-0.0005,0.0006000000000000001,0.0172,-0.04,-0.073,-0.124
1701526420.334,19.609,19.609,-19.609,0.0007,-0.002,-0.0076,-0.049,-0.047,-0.114
1701526420.374,19.609,19.609,-19.609,-0.0005,-0.0014,0.002,-0.054,-0.048,-0.108
1701526420.414,19.609,19.609,-19.609,-0.0025,0.00030000000000000003,-0.026600000000000002,-0.054,-0.037,-0.111
1701526420.454,19.609,19.609,-19.609,-0.0004,-0.0002,-0.0502,-0.046,-0.042,-0.109
1701526420.494,19.609,19.609,-19.609,0.0009000000000000001,0.0008,0.0584,-0.038,-0.037,-0.105
1701526420.534,19.609,19.609,-19.609,-0.0004,0.0018000000000000002,-0.0068000000000000005,-0.032,-0.047,-0.10300000000000001
1701526420.574,19.609,19.609,-19.609,0.0006000000000000001,-0.0007,-0.031100000000000003,-0.029,-0.051000000000000004,-0.107
1701526420.6139998,19.609,19.609,-19.609,0.0034000000000000002,0.0009000000000000001,0.0239,-0.027,-0.014,-0.094
1701526420.654,19.609,19.609,-19.609,-0.0006000000000000001,0.0009000000000000001,-0.0328,-0.009000000000000001,-0.031,-0.105
1701526420.694,19.609,19.609,-19.609,0.0004,0.0015,0.031100000000000003,-0.008,-0.041,-0.112
1701526420.734,19.609,19.609,-19.609,0.0007,-0.00030000000000000003,-0.034,-0.014,-0.04,-0.105
1701526420.774,19.609,19.609,-19.609,0.0004,-0.001,0.016900000000000002,-0.001,-0.05,-0.11
1701526420.814,19.609,19.609,-19.609,-0.0004,-0.0011,0.0111,-0.008,-0.047,-0.114
1701526420.8539999,19.609,19.609,-19.609,-0.0009000000000000001,0.0018000000000000002,-0.049600000000000005,-0.013000000000000001,-0.053,-0.112
1701526420.894,19.609,19.609,-19.609,0.0002,-0.0015,0.0358,0.001,-0.048,-0.114
1701526420.934,19.609,19.609,-19.609,-0.0007,-0.0001,-0.0076,-0.014,-0.045,-0.113
1701526420.974,19.609,19.609,-19.609,-0.0005,0.00030000000000000003,-0.0009000000000000001,-0.009000000000000001,-0.05,-0.11900000000000001
1701526421.014,19.609,19.609,-19.609,-0.0017000000000000001,0.00030000000000000003,-0.0043,-0.012,-0.047,-0.125
1701526421.054,19.609,19.609,-19.609,0.0004,-0.002,-0.0175,-0.016,-0.051000000000000004,-0.12
1701526421.0939999,19.609,19.609,-19.609,-0.0007,0.0002,0.0145,-0.011,-0.051000000000000004,-0.10300000000000001
1701526421.134,19.609,19.609,-19.609,0.0,0.0005,-0.0238,-0.004,-0.06,-0.105
1701526421.174,19.609,19.609,-19.609,0.0001,-0.0004,0.008400000000000001,-0.002,-0.057,-0.12
1701526421.214,19.609,19.609,-19.609,0.0001,-0.00030000000000000003,-0.0548,-0.011,-0.063,-0.116
1701526421.254,19.609,19.609,-19.609,-0.0017000000000000001,0.0014,0.043500000000000004,-0.019,-0.047,-0.116
1701526421.294,19.609,19.609,-19.609,-0.0021000000000000003,0.0017000000000000001,-0.0562,-0.027,-0.044,-0.116
1701526421.3339999,19.609,19.609,-19.609,-0.0009000000000000001,-0.0002,0.0476,-0.014,-0.057,-0.123
1701526421.374,19.609,19.609,-19.609,-0.0018000000000000002,-0.0001,-0.037200000000000004,-0.041,-0.067,-0.112
1701526421.414,19.609,19.609,-19.609,-0.0044,-0.0018000000000000002,0.027600000000000003,-0.058,-0.07100000000000001,-0.094
1701526421.454,19.609,19.609,-19.609,-0.001,0.0009000000000000001,-0.045700000000000005,-0.062,-0.044,-0.112
1701526421.494,19.609,19.609,-19.609,0.0,0.0007,0.0378,-0.079,-0.034,-0.111
1701526421.534,19.609,19.609,-19.609,-0.0001,-0.0002,-0.0193,-0.10400000000000001,-0.057,-0.128
1701526421.574,19.609,19.609,-19.609,-0.0001,0.0004,-0.0014,-0.171,-0.057,-0.14100000000000001
1701526421.614,19.609,19.609,-19.609,0.0015,-0.0009000000000000001,0.0176,-0.191,-0.057,-0.14400000000000002
1701526421.654,19.609,19.609,-19.609,-0.0026000000000000003,-0.0002,-0.0562,-0.176,-0.043000000000000003,-0.127
1701526421.694,19.609,19.609,-19.609,0.0007,-0.0002,0.0363,-0.164,-0.051000000000000004,-0.106
1701526421.734,19.609,19.609,-19.609,-0.0016,0.0021000000000000003,0.013900000000000001,-0.146,-0.034,-0.10400000000000001
1701526421.774,19.609,19.609,-19.609,0.0015,0.0017000000000000001,-0.007,-0.097,-0.01,-0.106
1701526421.814,19.609,19.609,-19.609,-0.0002,0.0001,-0.0426,-0.049,0.017,-0.111
1701526421.854,19.609,19.609,-19.609,0.0014,-0.0005,0.047900000000000005,-0.016,0.005,-0.137
1701526421.894,19.609,19.609,-19.609,0.0004,-0.001,-0.045700000000000005,0.012,-0.037,-0.134
1701526421.934,19.609,19.609,-19.609,-0.0008,0.0,0.0358,0.045,-0.075,-0.139
1701526421.974,19.609,19.609,-19.609,0.0006000000000000001,0.0006000000000000001,-0.0012000000000000001,0.07100000000000001,-0.061,-0.155
1701526422.014,19.609,19.609,-19.609,0.0011,0.0008,-0.0531,0.131,-0.047,-0.136
1701526422.054,19.609,19.609,-19.609,0.0006000000000000001,0.001,0.0337,0.289,0.012,-0.136
1701526422.094,19.609,19.609,-19.609,0.0026000000000000003,-0.0004,0.009000000000000001,0.417,0.056,-0.197
1701526422.134,19.609,19.609,-19.609,0.0027,0.0012000000000000001,-0.0011,0.366,0.08,-0.213
1701526422.174,19.609,19.609,-19.609,0.001,-0.0018000000000000002,-0.048400000000000006,0.257,0.075,-0.195
1701526422.214,19.609,19.609,-19.609,-0.0009000000000000001,0.0001,0.040400000000000005,0.202,0.037,-0.162
1701526422.254,19.609,19.609,-19.609,0.0002,-0.0001,0.0023,0.068,0.002,-0.132
1701526422.294,19.609,19.609,-19.609,0.0006000000000000001,-0.00030000000000000003,0.0002,-0.013000000000000001,-0.035,-0.121
1701526422.334,19.609,19.609,-19.609,-0.0002,0.0004,-0.0016,-0.037,-0.07,-0.127
1701526422.374,19.609,19.609,-19.609,-0.0004,0.0005,-0.0422,-0.079,-0.069,-0.128
1701526422.414,19.609,19.609,-19.609,0.0004,0.0001,0.0325,-0.08700000000000001,-0.076,-0.10300000000000001
1701526422.454,19.609,19.609,-19.609,-0.0017000000000000001,0.0012000000000000001,-0.0005,-0.112,-0.085,-0.088
1701526422.494,19.609,19.609,-19.609,0.0012000000000000001,0.00030000000000000003,-0.0205,-0.084,-0.081,-0.091
1701526422.534,19.609,19.609,-19.609,0.0,0.002,0.0118,-0.053,-0.068,-0.106
1701526422.574,19.609,19.609,-19.609,0.0007,-0.0015,-0.0473,-0.051000000000000004,-0.055,-0.106
1701526422.6139998,19.609,19.609,-19.609,0.0015,-0.0001,0.0316,-0.029,-0.057,-0.093
1701526422.654,19.609,19.609,-19.609,0.0007,0.0009000000000000001,-0.0346,-0.021,-0.07100000000000001,-0.10400000000000001
1701526422.694,19.609,19.609,-19.609,0.0009000000000000001,-0.0017000000000000001,0.031400000000000004,-0.024,-0.076,-0.099
1701526422.734,19.609,19.609,-19.609,-0.0005,0.0001,-0.0443,-0.017,-0.076,-0.1
1701526422.774,19.609,19.609,-19.609,-0.0009000000000000001,0.0008,0.0449,-0.028,-0.053,-0.115
1701526422.814,19.609,19.609,-19.609,0.0,0.0007,-0.046900000000000004,-0.008,-0.043000000000000003,-0.101
1701526422.8539999,19.609,19.609,-19.609,0.0,-0.00030000000000000003,0.037700000000000004,-0.012,-0.037,-0.107
1701526422.894,19.609,19.609,-19.609,-0.0014,0.0,-0.01,-0.009000000000000001,-0.035,-0.11
1701526422.934,19.609,19.609,-19.609,0.0016,0.0025,0.0039000000000000003,-0.023,-0.029,-0.106
1701526422.974,19.609,19.609,-19.609,-0.00030000000000000003,0.0002,-0.036000000000000004,-0.026000000000000002,-0.043000000000000003,-0.11
1701526423.014,19.609,19.609,-19.609,0.0007,-0.0007,0.028,-0.014,-0.049,-0.114
1701526423.054,19.609,19.609,-19.609,0.0004,0.0004,0.0017000000000000001,-0.025,-0.047,-0.117
1701526423.0939999,19.609,19.609,-19.609,-0.0007,0.00030000000000000003,-0.0318,-0.014,-0.052000000000000005,-0.112
1701526423.134,19.609,19.609,-19.609,0.0002,-0.002,0.0114,0.009000000000000001,-0.043000000000000003,-0.11
1701526423.174,19.609,19.609,-19.609,0.0018000000000000002,0.0006000000000000001,-0.0374,0.0,-0.035,-0.114
1701526423.214,19.609,19.609,-19.609,-0.0025,-0.0002,0.0333,-0.005,-0.034,-0.113
1701526423.254,19.609,19.609,-19.609,0.0015,0.0,-0.045200000000000004,-0.003,-0.036000000000000004,-0.117
1701526423.294,19.609,19.609,-19.609,0.0012000000000000001,-0.0007,0.031400000000000004,-0.005,-0.047,-0.111
1701526423.3339999,19.609,19.609,-19.609,-0.0015,0.0017000000000000001,-0.0211,-0.002,-0.049,-0.112
1701526423.374,19.609,19.609,-19.609,0.0006000000000000001,-0.0014,0.0264,0.0,-0.062,-0.11
1701526423.414,19.609,19.609,-19.609,0.0014,-0.001,-0.0455,-0.004,-0.058,-0.106
1701526423.454,19.609,19.609,-19.609,-0.0034000000000000002,0.0,0.0379,-0.006,-0.049,-0.109
1701526423.494,19.609,19.609,-19.609,0.002,0.0008,0.0091,0.0,-0.043000000000000003,-0.093
1701526423.534,19.609,19.609,-19.609,0.0001,-0.0026000000000000003,-0.0224,-0.009000000000000001,-0.039,-0.098
1701526423.574,19.609,19.609,-19.609,0.0005,0.0005,-0.0015,-0.013000000000000001,-0.038,-0.108
1701526423.614,19.609,19.609,-19.609,-0.0027,-0.0008,-0.012,-0.01,-0.036000000000000004,-0.101
1701526423.654,19.609,19.609,-19.609,0.0025,0.001,0.0029000000000000002,-0.004,-0.035,-0.10200000000000001
1701526423.694,19.609,19.609,-19.609,0.0015,0.0012000000000000001,-0.028800000000000003,-0.003,-0.04,-0.117
1701526423.734,19.609,19.609,-19.609,0.001,0.0013000000000000002,0.0145,-0.009000000000000001,-0.06,-0.113
1701526423.774,19.609,19.609,-19.609,0.0028,0.0,-0.039900000000000005,-0.007,-0.048,-0.11800000000000001
1701526423.814,19.609,19.609,-19.609,-0.0029000000000000002,0.0001,0.0324,-0.025,-0.04,-0.12
1701526423.854,19.609,19.609,-19.609,0.0045000000000000005,0.0012000000000000001,-0.041100000000000005,-0.01,-0.044,-0.11900000000000001
1701526423.894,19.609,19.609,-19.609,-0.00030000000000000003,0.0011,0.0362,-0.016,-0.028,-0.11
1701526423.934,19.609,19.609,-19.609,0.0,0.0012000000000000001,-0.046,-0.024,-0.018000000000000002,-0.117
1701526423.974,19.609,19.609,-19.609,-0.001,-0.0018000000000000002,0.039,-0.024,-0.016,-0.117
1701526424.014,19.609,19.609,-19.609,0.0008,-0.0012000000000000001,-0.019100000000000002,-0.01,-0.021,-0.114
1701526424.054,19.609,19.609,-19.609,-0.001,-0.0021000000000000003,0.0046,-0.006,-0.052000000000000005,-0.12
1701526424.094,19.609,19.609,-19.609,-0.0017000000000000001,-0.0002,0.0015,-0.009000000000000001,-0.059000000000000004,-0.126
1701526424.134,19.609,19.609,-19.609,0.0009000000000000001,0.0008,-0.0427,-0.003,-0.053,-0.121
1701526424.174,19.609,19.609,-19.609,-0.004200000000000001,0.0017000000000000001,0.0354,-0.028,-0.05,-0.121
1701526424.214,19.609,19.609,-19.609,0.0,0.0018000000000000002,-0.0437,-0.018000000000000002,-0.042,-0.13
1701526424.254,19.609,19.609,-19.609,-0.0001,-0.0012000000000000001,0.040400000000000005,-0.021,-0.034,-0.10400000000000001
1701526424.294,19.609,19.609,-19.609,0.0014,0.0021000000000000003,-0.0281,-0.016,-0.036000000000000004,-0.111
1701526424.334,19.609,19.609,-19.609,0.0007,0.0,0.0159,0.002,-0.022,-0.11
1701526424.374,19.609,19.609,-19.609,-0.0027,-0.0023,0.0038,-0.005,-0.053,-0.106
1701526424.414,19.609,19.609,-19.609,-0.0018000000000000002,-0.0004,-0.023100000000000002,0.023,-0.038,-0.113
1701526424.454,19.609,19.609,-19.609,0.0,0.0007,0.0205,-0.01,-0.041,-0.125
1701526424.494,19.609,19.609,-19.609,-0.0005,0.002,-0.0358,-0.034,-0.04,-0.11800000000000001
1701526424.534,19.609,19.609,-19.609,-0.0023,0.0008,0.0292,-0.013000000000000001,-0.044,-0.107
1701526424.574,19.609,19.609,-19.609,0.0006000000000000001,0.0011,-0.0335,0.0,-0.045,-0.116
1701526424.6139998,19.609,19.609,-19.609,0.0006000000000000001,0.0019,0.021500000000000002,-0.002,-0.057,-0.111
1701526424.654,19.609,19.609,-19.609,-0.0004,0.0004,-0.027200000000000002,-0.01,-0.058,-0.11
1701526424.694,19.609,19.609,-19.609,-0.0022,0.0005,0.0213,-0.004,-0.05,-0.122
1701526424.734,19.609,19.609,-19.609,0.0012000000000000001,-0.0014,0.0054,-0.009000000000000001,-0.053,-0.117
1701526424.774,19.609,19.609,-19.609,0.00030000000000000003,0.0012000000000000001,-0.0263,-0.014,-0.045,-0.11900000000000001
1701526424.814,19.609,19.609,-19.609,-0.0006000000000000001,-0.0014,0.014400000000000001,-0.009000000000000001,-0.026000000000000002,-0.12
1701526424.8539999,19.609,19.609,-19.609,-0.0007,0.00030000000000000003,0.007200000000000001,0.0,-0.036000000000000004,-0.115
1701526424.894,19.609,19.609,-19.609,0.0015,0.0006000000000000001,-0.0429,-0.006,-0.039,-0.107
1701526424.934,19.609,19.609,-19.609,0.0021000000000000003,-0.0006000000000000001,0.0334,0.0,-0.045,-0.115
1701526424.974,19.609,19.609,-19.609,0.0001,0.0001,0.0014,0.0,-0.041,-0.105
1701526425.014,19.609,19.609,-19.609,0.0,-0.00030000000000000003,-0.0347,-0.008,-0.034,-0.094
1701526425.054,19.609,19.609,-19.609,0.00030000000000000003,-0.0009000000000000001,0.0222,0.004,-0.033,-0.112
1701526425.0939999,19.609,19.609,-19.609,0.0005,-0.0008,-0.0106,0.005,-0.042,-0.11800000000000001
1701526425.134,19.609,19.609,-19.609,-0.001,-0.0011,-0.0083,-0.012,-0.033,-0.107
1701526425.174,19.609,19.609,-19.609,-0.0007,0.0004,0.0119,-0.014,-0.023,-0.11
1701526425.214,19.609,19.609,-19.609,-0.0012000000000000001,-0.0024000000000000002,-0.0683,-0.003,-0.041,-0.11900000000000001
1701526425.254,19.609,19.609,-19.609,-0.0012000000000000001,0.00030000000000000003,0.0603,-0.008,-0.037,-0.112
1701526425.294,19.609,19.609,-19.609,-0.0018000000000000002,-0.0023,-0.012100000000000001,0.001,-0.043000000000000003,-0.109
1701526425.3339999,19.609,19.609,-19.609,-0.0009000000000000001,-0.0005,0.001,-0.007,-0.04,-0.122
1701526425.374,19.609,19.609,-19.609,0.0011,-0.0014,0.007500000000000001,-0.02,-0.044,-0.113
1701526425.414,19.609,19.609,-19.609,-0.0027,0.0008,-0.0179,-0.021,-0.041,-0.113
1701526425.454,19.609,19.609,-19.609,-0.0004,0.0,0.0148,-0.001,-0.046,-0.122
1701526425.494,19.609,19.609,-19.609,0.0007,-0.0013000000000000002,-0.046,-0.01,-0.044,-0.122
1701526425.534,19.609,19.609,-19.609,-0.0023,0.0014,0.0388,-0.014,-0.048,-0.122
1701526425.574,19.609,19.609,-19.609,-0.0007,0.0014,-0.0463,-0.012,-0.052000000000000005,-0.11800000000000001
1701526425.614,19.609,19.609,-19.609,0.0009000000000000001,-0.0017000000000000001,0.0366,-0.017,-0.046,-0.114
1701526425.654,19.609,19.609,-19.609,-0.0005,0.0,-0.004200000000000001,-0.012,-0.048,-0.114
1701526425.694,19.609,19.609,-19.609,-0.0014,-0.0005,-0.053000000000000005,-0.001,-0.051000000000000004,-0.12
1701526425.734,19.609,19.609,-19.609,0.0016,0.002,0.041800000000000004,-0.01,-0.053,-0.11800000000000001
1701526425.774,19.609,19.609,-19.609,-0.0024000000000000002,0.0011,0.0014,-0.009000000000000001,-0.036000000000000004,-0.107
1701526425.814,19.609,19.609,-19.609,-0.0007,0.0002,-0.0322,-0.001,-0.04,-0.107
1701526425.854,19.609,19.609,-19.609,-0.0007,-0.0006000000000000001,0.0224,0.0,-0.038,-0.124
1701526425.894,19.609,19.609,-19.609,-0.0009000000000000001,-0.00030000000000000003,0.0032,-0.01,-0.05,-0.116
1701526425.934,19.609,19.609,-19.609,0.0004,0.0008,-0.0419,-0.017,-0.041,-0.116
1701526425.974,19.609,19.609,-19.609,-0.0007,0.0021000000000000003,0.0318,-0.003,-0.042,-0.117
1701526426.014,19.609,19.609,-19.609,-0.0029000000000000002,0.0015,-0.0396,-0.003,-0.043000000000000003,-0.11
1701526426.054,19.609,19.609,-19.609,0.0007,0.0001,0.0291,0.002,-0.04,-0.109
1701526426.094,19.609,19.609,-19.609,-0.0011,-0.0004,-0.0412,0.032,-0.038,-0.127
1701526426.134,19.609,19.609,-19.609,-0.0001,0.0013000000000000002,0.033,-0.002,-0.04,-0.11800000000000001
1701526426.174,19.609,19.609,-19.609,0.0036000000000000003,0.0015,-0.0438,-0.015,-0.049,-0.10300000000000001
1701526426.214,19.609,19.609,-19.609,0.0017000000000000001,-0.0006000000000000001,0.0408,0.002,-0.048,-0.127
1701526426.254,19.609,19.609,-19.609,0.00030000000000000003,0.0011,-0.0018000000000000002,0.002,-0.052000000000000005,-0.116
1701526426.294,19.609,19.609,-19.609,-0.0018000000000000002,-0.0017000000000000001,-0.0453,-0.032,-0.04,-0.11
1701526426.334,19.609,19.609,-19.609,0.0024000000000000002,0.0007,0.042,-0.001,-0.041,-0.123
1701526426.374,19.609,19.609,-19.609,-0.0008,0.0007,-0.00030000000000000003,0.005,-0.046,-0.128
1701526426.414,19.609,19.609,-19.609,-0.002,0.001,-0.0031000000000000003,-0.011,-0.042,-0.116
1701526426.454,19.609,19.609,-19.609,-0.0006000000000000001,0.0018000000000000002,-0.0308,0.005,-0.05,-0.11800000000000001
1701526426.494,19.609,19.609,-19.609,-0.0023,-0.0007,0.0206,0.004,-0.052000000000000005,-0.122
1701526426.534,19.609,19.609,-19.609,-0.0029000000000000002,0.0026000000000000003,-0.0332,-0.047,-0.035,-0.111
1701526426.574,19.609,19.609,-19.609,-0.00030000000000000003,-0.0005,0.028,0.001,-0.016,-0.108
1701526426.6139998,19.609,19.609,-19.609,-0.0013000000000000002,-0.0009000000000000001,-0.013300000000000001,0.005,-0.025,-0.12
1701526426.654,19.609,19.609,-19.609,-0.0007,0.0015,-0.028300000000000002,-0.005,-0.039,-0.114
1701526426.694,19.609,19.609,-19.609,0.0,-0.0006000000000000001,0.024,-0.023,-0.027,-0.115
1701526426.734,19.609,19.609,-19.609,0.0019,-0.0002,0.0029000000000000002,-0.009000000000000001,-0.049,-0.11
1701526426.774,19.609,19.609,-19.609,-0.0008,0.0005,-0.0328,0.001,-0.051000000000000004,-0.108
1701526426.814,19.609,19.609,-19.609,0.004,-0.00030000000000000003,0.0244,-0.01,-0.043000000000000003,-0.1
1701526426.8539999,19.609,19.609,-19.609,-0.0038,0.0006000000000000001,-0.0006000000000000001,-0.002,-0.036000000000000004,-0.115
1701526426.894,19.609,19.609,-19.609,-0.0018000000000000002,0.0021000000000000003,0.0021000000000000003,-0.004,-0.043000000000000003,-0.116
1701526426.934,19.609,19.609,-19.609,-0.001,-0.0028,-0.041100000000000005,-0.015,-0.043000000000000003,-0.111
1701526426.974,19.609,19.609,-19.609,-0.0029000000000000002,-0.00030000000000000003,-0.0441,-0.001,-0.047,-0.117
1701526427.014,19.609,19.609,-19.609,-0.0002,-0.0004,0.0685,-0.011,-0.039,-0.11800000000000001
1701526427.054,19.609,19.609,-19.609,-0.0001,0.0032,-0.0095,-0.013000000000000001,-0.037,-0.121
1701526427.0939999,19.609,19.609,-19.609,0.0026000000000000003,-0.00030000000000000003,-0.0354,-0.008,-0.042,-0.121
1701526427.134,19.609,19.609,-19.609,-0.001,-0.0017000000000000001,0.0264,-0.01,-0.047,-0.11900000000000001
1701526427.174,19.609,19.609,-19.609,-0.00030000000000000003,-0.0004,-0.0103,-0.01,-0.038,-0.114
1701526427.214,19.609,19.609,-19.609,-0.0031000000000000003,0.00030000000000000003,0.0241,-0.014,-0.033,-0.11800000000000001
1701526427.254,19.609,19.609,-19.609,0.0011,0.0012000000000000001,-0.0531,-0.007,-0.035,-0.123
1701526427.294,19.609,19.609,-19.609,-0.00030000000000000003,0.0006000000000000001,0.0162,-0.017,-0.024,-0.112
1701526427.3339999,19.609,19.609,-19.609,0.0001,-0.0004,0.0134,-0.012,-0.032,-0.11
1701526427.374,19.609,19.609,-19.609,0.0006000000000000001,-0.0007,-0.026000000000000002,0.002,-0.039,-0.12
1701526427.414,19.609,19.609,-19.609,0.0004,-0.0014,0.0213,-0.009000000000000001,-0.044,-0.113
1701526427.454,19.609,19.609,-19.609,-0.0015,0.0004,-0.037700000000000004,-0.017,-0.042,-0.105
1701526427.494,19.609,19.609,-19.609,-0.0004,0.0026000000000000003,0.0405,-0.002,-0.029,-0.105
1701526427.534,19.609,19.609,-19.609,0.0,0.0015,-0.016,0.015,-0.042,-0.108
1701526427.574,19.609,19.609,-19.609,0.0004,0.0024000000000000002,0.005,0.005,-0.078,-0.092
1701526427.614,19.609,19.609,-19.609,0.0006000000000000001,-0.0007,0.005,0.006,-0.055,-0.097
1701526427.654,19.609,19.609,-19.609,-0.0007,-0.0018000000000000002,-0.042800000000000005,0.009000000000000001,-0.049,-0.10200000000000001
1701526427.694,19.609,19.609,-19.609,0.0021000000000000003,-0.0009000000000000001,0.014400000000000001,0.007,-0.057,-0.111
1701526427.734,19.609,19.609,-19.609,0.0012000000000000001,0.0,-0.023,-0.001,-0.045,-0.12
1701526427.774,19.609,19.609,-19.609,0.0002,0.0,0.0286,-0.009000000000000001,-0.045,-0.116
1701526427.814,19.609,19.609,-19.609,0.001,-0.0017000000000000001,-0.014400000000000001,-0.014,-0.038,-0.117
1701526427.854,19.609,19.609,-19.609,-0.0021000000000000003,-0.0001,-0.037700000000000004,-0.008,-0.035,-0.112
1701526427.894,19.609,19.609,-19.609,-0.00030000000000000003,-0.0006000000000000001,0.0393,0.004,-0.039,-0.116
1701526427.934,19.609,19.609,-19.609,0.0005,0.0018000000000000002,0.0039000000000000003,0.006,-0.042,-0.111
1701526427.974,19.609,19.609,-19.609,-0.0004,-0.0009000000000000001,-0.039,-0.005,-0.079,-0.116
1701526428.014,19.609,19.609,-19.609,0.0018000000000000002,-0.0009000000000000001,0.0256,-0.013000000000000001,-0.037,-0.122
1701526428.054,19.609,19.609,-19.609,0.001,-0.0012000000000000001,0.0034000000000000002,-0.026000000000000002,-0.038,-0.12
1701526428.094,19.609,19.609,-19.609,0.0,-0.0006000000000000001,-0.0339,-0.012,-0.039,-0.115
1701526428.134,19.609,19.609,-19.609,-0.002,-0.0006000000000000001,0.0274,0.01,-0.033,-0.114
1701526428.174,19.609,19.609,-19.609,-0.0014,-0.0004,-0.019700000000000002,0.008,-0.05,-0.116
1701526428.214,19.609,19.609,-19.609,-0.0013000000000000002,0.0,0.0132,-0.009000000000000001,-0.028,-0.108
1701526428.254,19.609,19.609,-19.609,-0.0017000000000000001,-0.0004,-0.004200000000000001,-0.004,-0.034,-0.105
1701526428.294,19.609,19.609,-19.609,0.0004,-0.0023,-0.0442,0.001,-0.035,-0.107
1701526428.334,19.609,19.609,-19.609,-0.0011,0.0004,0.0407,0.003,-0.03,-0.08600000000000001
1701526428.374,19.609,19.609,-19.609,-0.0007,0.0004,0.004,0.014,-0.02,-0.094
1701526428.414,19.609,19.609,-19.609,0.0019,-0.0018000000000000002,-0.035500000000000004,0.015,-0.035,-0.10300000000000001
1701526428.454,19.609,19.609,-19.609,0.00030000000000000003,-0.0006000000000000001,0.0224,0.027,-0.05,-0.10200000000000001
1701526428.494,19.609,19.609,-19.609,0.0001,0.0004,0.0049,0.042,-0.027,-0.117
1701526428.534,19.609,19.609,-19.609,0.0,0.0004,-0.0528,0.097,-0.008,-0.123
1701526428.574,19.609,19.609,-19.609,-0.0025,-0.0021000000000000003,0.0373,0.109,0.005,-0.128
1701526428.6139998,19.609,19.609,-19.609,-0.0014,-0.0014,-0.004,0.035,-0.014,-0.116
1701526428.654,19.609,19.609,-19.609,0.0002,0.0036000000000000003,-0.0092,-0.044,-0.04,-0.10400000000000001
1701526428.694,19.609,19.609,-19.609,-0.0002,0.0009000000000000001,0.004,-0.056,-0.051000000000000004,-0.11800000000000001
1701526428.734,19.609,19.609,-19.609,-0.0021000000000000003,0.0012000000000000001,-0.041,-0.043000000000000003,-0.059000000000000004,-0.125
1701526428.774,19.609,19.609,-19.609,-0.0014,0.0004,0.033600000000000005,-0.009000000000000001,-0.048,-0.128
1701526428.814,19.609,19.609,-19.609,0.0012000000000000001,0.0006000000000000001,-0.042100000000000005,0.014,-0.025,-0.125
1701526428.8539999,19.609,19.609,-19.609,-0.00030000000000000003,-0.0007,0.043300000000000005,0.012,-0.016,-0.11
1701526428.894,19.609,19.609,-19.609,0.0,-0.0001,-0.0043,-0.008,-0.038,-0.115
1701526428.934,19.609,19.609,-19.609,-0.00030000000000000003,0.003,-0.0196,-0.006,-0.05,-0.11900000000000001
1701526428.974,19.609,19.609,-19.609,0.0001,-0.0012000000000000001,0.014,-0.007,-0.045,-0.113
1701526429.014,19.609,19.609,-19.609,-0.002,-0.0002,0.0228,-0.017,-0.038,-0.122
1701526429.054,19.609,19.609,-19.609,-0.0002,0.0009000000000000001,-0.0171,-0.014,-0.043000000000000003,-0.126
1701526429.0939999,19.609,19.609,-19.609,-0.0006000000000000001,-0.0009000000000000001,-0.0488,0.006,-0.04,-0.124
1701526429.134,19.609,19.609,-19.609,0.00030000000000000003,0.0,0.0405,0.014,-0.028,-0.12
1701526429.174,19.609,19.609,-19.609,-0.0008,-0.0023,-0.035500000000000004,0.006,-0.041,-0.114
1701526429.214,19.609,19.609,-19.609,-0.0023,0.0018000000000000002,0.0171,-0.012,-0.057,-0.106
1701526429.254,19.609,19.609,-19.609,-0.0017000000000000001,0.0031000000000000003,0.0018000000000000002,-0.006,-0.056,-0.108
1701526429.294,19.609,19.609,-19.609,0.0001,-0.0018000000000000002,-0.027600000000000003,-0.001,-0.034,-0.107
1701526429.3339999,19.609,19.609,-19.609,-0.0006000000000000001,-0.0002,0.0333,-0.006,-0.055,-0.108
1701526429.374,19.609,19.609,-19.609,0.0,0.0007,-0.0339,-0.01,-0.047,-0.113
1701526429.414,19.609,19.609,-19.609,0.0011,0.0,0.020800000000000003,-0.003,-0.05,-0.105
1701526429.454,19.609,19.609,-19.609,-0.0017000000000000001,0.0015,-0.0234,0.006,-0.051000000000000004,-0.111
1701526429.494,19.609,19.609,-19.609,-0.0009000000000000001,0.0009000000000000001,-0.0001,-0.005,-0.055,-0.107
1701526429.534,19.609,19.609,-19.609,0.0,0.00030000000000000003,-0.0206,-0.021,-0.032,-0.11800000000000001
1701526429.574,19.609,19.609,-19.609,0.0001,-0.0002,0.0227,-0.014,-0.023,-0.109
1701526429.614,19.609,19.609,-19.609,0.0008,-0.0008,0.0057,-0.02,-0.014,-0.108
1701526429.654,19.609,19.609,-19.609,-0.0009000000000000001,0.0028,-0.0092,-0.009000000000000001,-0.04,-0.115
1701526429.694,19.609,19.609,-19.609,-0.0015,0.0001,-0.0379,-0.01,-0.031,-0.123
1701526429.734,19.609,19.609,-19.609,-0.0015,-0.0005,0.0385,-0.021,-0.028,-0.109
1701526429.774,19.609,19.609,-19.609,-0.0022,-0.0001,-0.0369,-0.017,-0.055,-0.11800000000000001
1701526429.814,19.609,19.609,-19.609,-0.0006000000000000001,0.0016,0.0267,-0.016,-0.045,-0.122
1701526429.854,19.609,19.609,-19.609,-0.0009000000000000001,-0.0009000000000000001,0.00030000000000000003,-0.012,-0.052000000000000005,-0.112
1701526429.894,19.609,19.609,-19.609,-0.0006000000000000001,-0.0004,-0.0327,-0.014,-0.038,-0.122
1701526429.934,19.609,19.609,-19.609,-0.0017000000000000001,-0.00030000000000000003,0.0236,-0.051000000000000004,-0.046,-0.11900000000000001
1701526429.974,19.609,19.609,-19.609,0.0014,-0.0001,-0.0495,-0.028,-0.052000000000000005,-0.11800000000000001
1701526430.014,19.609,19.609,-19.609,0.0008,-0.0021000000000000003,0.030500000000000003,-0.005,-0.034,-0.114
1701526430.054,19.609,19.609,-19.609,0.0011,0.0007,-0.023100000000000002,-0.005,-0.04,-0.11800000000000001
1701526430.094,19.609,19.609,-19.609,0.0008,0.0013000000000000002,-0.0216,-0.012,-0.035,-0.11900000000000001
1701526430.134,19.609,19.609,-19.609,-0.0028,-0.0005,0.0443,-0.003,-0.04,-0.122
1701526430.174,19.609,19.609,-19.609,-0.0008,-0.0001,-0.0014,-0.012,-0.037,-0.117
1701526430.214,19.609,19.609,-19.609,-0.0004,-0.0009000000000000001,-0.0499,-0.016,-0.046,-0.116
1701526430.254,19.609,19.609,-19.609,0.0004,0.0009000000000000001,0.0199,-0.012,-0.048,-0.117
1701526430.294,19.609,19.609,-19.609,-0.0009000000000000001,0.0006000000000000001,-0.0056,-0.02,-0.047,-0.115
1701526430.334,19.609,19.609,-19.609,0.0001,-0.0009000000000000001,0.006900000000000001,-0.01,-0.047,-0.1
1701526430.374,19.609,19.609,-19.609,-0.002,0.00030000000000000003,-0.0046,-0.006,-0.042,-0.108
1701526430.414,19.609,19.609,-19.609,0.0,0.0012000000000000001,-0.0379,-0.008,-0.048,-0.11900000000000001
1701526430.454,19.609,19.609,-19.609,-0.0008,-0.0004,0.0275,-0.022,-0.044,-0.10400000000000001
1701526430.494,19.609,19.609,-19.609,-0.0029000000000000002,-0.0001,-0.0397,-0.015,-0.033,-0.111
1701526430.534,19.609,19.609,-19.609,-0.0007,0.0007,0.0397,-0.002,-0.053,-0.127
1701526430.574,19.609,19.609,-19.609,-0.0019,0.0011,-0.0451,-0.005,-0.045,-0.11
1701526430.6139998,19.609,19.609,-19.609,-0.00030000000000000003,-0.0001,0.034300000000000004,-0.005,-0.041,-0.10400000000000001
1701526430.654,19.609,19.609,-19.609,-0.0006000000000000001,-0.0006000000000000001,0.0043,-0.003,-0.046,-0.121
1701526430.694,19.609,19.609,-19.609,-0.0004,-0.0006000000000000001,-0.0119,-0.01,-0.049,-0.099
1701526430.734,19.609,19.609,-19.609,-0.0034000000000000002,0.0009000000000000001,-0.0665,-0.008,-0.044,-0.101
1701526430.774,19.609,19.609,-19.609,-0.0012000000000000001,-0.00030000000000000003,0.0429,0.004,-0.038,-0.114
1701526430.814,19.609,19.609,-19.609,0.0,0.0,0.0216,-0.012,-0.037,-0.115
1701526430.8539999,19.609,19.609,-19.609,0.00030000000000000003,0.0,-0.046,-0.019,-0.038,-0.11900000000000001
1701526430.894,19.609,19.609,-19.609,-0.0019,-0.0008,0.0316,-0.01,-0.048,-0.11800000000000001
1701526430.934,19.609,19.609,-19.609,-0.0002,0.0012000000000000001,0.0029000000000000002,-0.017,-0.038,-0.109
1701526430.974,19.609,19.609,-19.609,-0.0014,-0.0004,-0.0412,-0.002,-0.04,-0.111
1701526431.014,19.609,19.609,-19.609,-0.001,0.0006000000000000001,0.022500000000000003,0.008,-0.047,-0.11
1701526431.054,19.609,19.609,-19.609,-0.00030000000000000003,0.0007,-0.0014,-0.007,-0.043000000000000003,-0.11800000000000001
1701526431.0939999,19.609,19.609,-19.609,0.0011,0.0015,-0.0313,-0.006,-0.047,-0.107
1701526431.134,19.609,19.609,-19.609,-0.0004,0.0009000000000000001,0.027800000000000002,0.002,-0.054,-0.113
1701526431.174,19.609,19.609,-19.609,-0.0026000000000000003,0.0009000000000000001,-0.052500000000000005,-0.003,-0.056,-0.11900000000000001
1701526431.214,19.609,19.609,-19.609,0.0009000000000000001,0.0002,0.0441,-0.012,-0.053,-0.116
1701526431.254,19.609,19.609,-19.609,-0.0011,0.0013000000000000002,0.0019,-0.017,-0.032,-0.114
1701526431.294,19.609,19.609,-19.609,-0.0017000000000000001,0.0004,-0.0247,-0.001,-0.038,-0.113
1701526431.3339999,19.609,19.609,-19.609,0.001,0.0012000000000000001,0.0146,-0.001,-0.037,-0.107
1701526431.374,19.609,19.609,-19.609,-0.0006000000000000001,-0.00030000000000000003,-0.0383,-0.007,-0.041,-0.099
1701526431.414,19.609,19.609,-19.609,-0.0009000000000000001,0.0006000000000000001,0.0347,0.003,-0.044,-0.129
1701526431.454,19.609,19.609,-19.609,-0.0011,-0.0005,-0.017,-0.003,-0.049,-0.117
1701526431.494,19.609,19.609,-19.609,-0.0004,-0.0001,0.0118,-0.017,-0.048,-0.107
1701526431.534,19.609,19.609,-19.609,0.0006000000000000001,0.0012000000000000001,-0.0261,-0.001,-0.046,-0.12
1701526431.574,19.609,19.609,-19.609,-0.00030000000000000003,-0.0013000000000000002,0.0167,0.007,-0.034,-0.113
1701526431.614,19.609,19.609,-19.609,0.0,0.0038,-0.0351,-0.009000000000000001,-0.034,-0.105
1701526431.654,19.609,19.609,-19.609,-0.0009000000000000001,-0.0006000000000000001,0.0297,0.001,-0.048,-0.114
1701526431.694,19.609,19.609,-19.609,0.0018000000000000002,0.0008,0.0039000000000000003,-0.005,-0.074,-0.117
1701526431.734,19.609,19.609,-19.609,0.0005,-0.0007,-0.0426,0.001,-0.049,-0.115
1701526431.774,19.609,19.609,-19.609,-0.0007,0.0,0.0354,-0.02,-0.049,-0.115
1701526431.814,19.609,19.609,-19.609,-0.0034000000000000002,0.001,-0.0159,-0.001,-0.046,-0.122
1701526431.854,19.609,19.609,-19.609,-0.0015,0.001,-0.0223,-0.016,-0.043000000000000003,-0.11
1701526431.894,19.609,19.609,-19.609,-0.0013000000000000002,-0.0013000000000000002,0.013800000000000002,0.013000000000000001,-0.042,-0.108
1701526431.934,19.609,19.609,-19.609,0.0001,-0.0004,0.0015,0.004,-0.047,-0.117
1701526431.974,19.609,19.609,-19.609,-0.0004,0.0004,-0.0437,-0.016,-0.049,-0.114
1701526432.014,19.609,19.609,-19.609,-0.001,-0.0014,0.040400000000000005,-0.015,-0.038,-0.114
1701526432.054,19.609,19.609,-19.609,0.0,0.0009000000000000001,-0.011300000000000001,-0.01,-0.041,-0.11900000000000001
1701526432.094,19.609,19.609,-19.609,0.0,-0.0002,0.006900000000000001,-0.007,-0.038,-0.109
1701526432.134,19.609,19.609,-19.609,0.00030000000000000003,0.0004,-0.0448,-0.007,-0.049,-0.10200000000000001
1701526432.174,19.609,19.609,-19.609,-0.0013000000000000002,-0.0013000000000000002,0.032600000000000004,-0.006,-0.04,-0.113
1701526432.214,19.609,19.609,-19.609,0.0002,-0.0009000000000000001,0.0017000000000000001,-0.002,-0.043000000000000003,-0.114
1701526432.254,19.609,19.609,-19.609,-0.0001,0.0021000000000000003,-0.0579,-0.012,-0.045,-0.115
1701526432.294,19.609,19.609,-19.609,-0.0017000000000000001,0.0001,0.0362,-0.005,-0.036000000000000004,-0.117
1701526432.334,19.609,19.609,-19.609,-0.002,0.00030000000000000003,-0.049,-0.011,-0.023,-0.11800000000000001
1701526432.374,19.609,19.609,-19.609,0.0021000000000000003,-0.0008,0.0379,-0.01,-0.023,-0.11
1701526432.414,19.609,19.609,-19.609,-0.0043,-0.0002,-0.0142,-0.006,-0.033,-0.115
1701526432.454,19.609,19.609,-19.609,-0.00030000000000000003,-0.001,0.014100000000000001,-0.012,-0.042,-0.112
1701526432.494,19.609,19.609,-19.609,-0.0034000000000000002,0.0006000000000000001,-0.0392,-0.014,-0.036000000000000004,-0.11
1701526432.534,19.609,19.609,-19.609,0.0,-0.0001,0.0308,-0.003,-0.042,-0.115
1701526432.574,19.609,19.609,-19.609,-0.0007,0.0017000000000000001,-0.0287,-0.019,-0.036000000000000004,-0.116
1701526432.6139998,19.609,19.609,-19.609,-0.0025,-0.0019,0.0368,-0.021,-0.024,-0.109
1701526432.654,19.609,19.609,-19.609,-0.001,-0.0026000000000000003,-0.0057,-0.015,-0.021,-0.10400000000000001
1701526432.694,19.609,19.609,-19.609,-0.00030000000000000003,-0.0009000000000000001,-0.027600000000000003,0.004,-0.03,-0.117
1701526432.734,19.609,19.609,-19.609,-0.0009000000000000001,-0.00030000000000000003,0.028900000000000002,-0.014,-0.046,-0.11900000000000001
1701526432.774,19.609,19.609,-19.609,-0.0018000000000000002,-0.002,-0.0346,-0.015,-0.044,-0.107
1701526432.814,19.609,19.609,-19.609,0.0006000000000000001,0.0009000000000000001,0.0264,-0.002,-0.038,-0.113
1701526432.8539999,19.609,19.609,-19.609,0.0019,-0.0018000000000000002,-0.0025,0.008,-0.039,-0.11800000000000001
1701526432.894,19.609,19.609,-19.609,0.0002,0.0011,-0.0152,-0.007,-0.049,-0.10300000000000001
1701526432.934,19.609,19.609,-19.609,-0.002,-0.0004,-0.038,-0.001,-0.048,-0.107
1701526432.974,19.609,19.609,-19.609,-0.0011,-0.0017000000000000001,0.0385,-0.004,-0.054,-0.12
1701526433.014,19.609,19.609,-19.609,-0.0004,0.0015,-0.038,-0.008,-0.052000000000000005,-0.114
1701526433.054,19.609,19.609,-19.609,-0.0018000000000000002,-0.0012000000000000001,0.0244,-0.003,-0.046,-0.11800000000000001
1701526433.0939999,19.609,19.609,-19.609,0.0024000000000000002,-0.0019,-0.0051,-0.007,-0.031,-0.115
1701526433.134,19.609,19.609,-19.609,-0.00030000000000000003,0.0023,-0.005,-0.019,-0.03,-0.113
1701526433.174,19.609,19.609,-19.609,0.002,0.0,0.0177,-0.008,-0.043000000000000003,-0.111
1701526433.214,19.609,19.609,-19.609,-0.0026000000000000003,-0.0004,-0.044000000000000004,-0.005,-0.048,-0.114
1701526433.254,19.609,19.609,-19.609,0.00030000000000000003,-0.0012000000000000001,0.023100000000000002,0.001,-0.053,-0.122
1701526433.294,19.609,19.609,-19.609,-0.0004,0.0004,-0.0361,-0.003,-0.06,-0.123
1701526433.3339999,19.609,19.609,-19.609,0.0,0.0012000000000000001,0.0275,0.0,-0.06,-0.12
1701526433.374,19.609,19.609,-19.609,0.0002,0.002,-0.015300000000000001,-0.005,-0.064,-0.117
1701526433.414,19.609,19.609,-19.609,0.0006000000000000001,0.0006000000000000001,-0.056,-0.012,-0.05,-0.107
1701526433.454,19.609,19.609,-19.609,-0.0032,-0.0012000000000000001,0.061700000000000005,-0.003,-0.047,-0.106
1701526433.494,19.609,19.609,-19.609,-0.0024000000000000002,0.0004,-0.0172,0.009000000000000001,-0.041,-0.129
1701526433.534,19.609,19.609,-19.609,-0.0023,-0.0023,0.008,-0.008,-0.055,-0.106
1701526433.574,19.609,19.609,-19.609,-0.001,0.0021000000000000003,-0.040600000000000004,-0.015,-0.038,-0.111
1701526433.614,19.609,19.609,-19.609,0.0015,0.0011,0.0245,-0.002,-0.045,-0.11900000000000001
1701526433.654,19.609,19.609,-19.609,-0.0001,-0.0016,-0.0037,-0.003,-0.043000000000000003,-0.111
1701526433.694,19.609,19.609,-19.609,0.0002,0.0004,-0.016900000000000002,-0.013000000000000001,-0.037,-0.108
1701526433.734,19.609,19.609,-19.609,-0.002,0.0007,0.0184,0.0,-0.036000000000000004,-0.123
1701526433.774,19.609,19.609,-19.609,-0.0012000000000000001,0.0023,0.0036000000000000003,0.0,-0.041,-0.113
1701526433.814,19.609,19.609,-19.609,0.0015,-0.001,-0.0514,-0.015,-0.04,-0.106
1701526433.854,19.609,19.609,-19.609,-0.0015,0.0011,0.0458,-0.01,-0.033,-0.12
1701526433.894,19.609,19.609,-19.609,-0.0015,-0.0023,-0.0076,-0.001,-0.038,-0.116
1701526433.934,19.609,19.609,-19.609,-0.00030000000000000003,0.0008,-0.0292,-0.007,-0.045,-0.115
1701526433.974,19.609,19.609,-19.609,-0.0002,0.00030000000000000003,0.0296,-0.006,-0.041,-0.12
1701526434.014,19.609,19.609,-19.609,-0.005,0.0001,-0.0089,-0.011,-0.045,-0.123
1701526434.054,19.609,19.609,-19.609,-0.0004,0.0005,-0.0103,-0.008,-0.05,-0.11900000000000001
1701526434.094,19.609,19.609,-19.609,0.0019,0.0014,0.0182,-0.012,-0.046,-0.115
1701526434.134,19.609,19.609,-19.609,-0.0001,-0.0023,-0.012100000000000001,0.0,-0.043000000000000003,-0.114
1701526434.174,19.609,19.609,-19.609,-0.00030000000000000003,0.0016,-0.0523,-0.009000000000000001,-0.047,-0.115
1701526434.214,19.609,19.609,-19.609,-0.0011,-0.0004,0.0432,-0.001,-0.039,-0.107
1701526434.254,19.609,19.609,-19.609,0.0001,-0.0006000000000000001,-0.0167,0.006,-0.041,-0.11900000000000001
1701526434.294,19.609,19.609,-19.609,0.0001,-0.0001,-0.0257,-0.009000000000000001,-0.047,-0.121
1701526434.334,19.609,19.609,-19.609,-0.0002,-0.0009000000000000001,0.0264,-0.022,-0.044,-0.12
1701526434.374,19.609,19.609,-19.609,-0.0019,0.0012000000000000001,-0.026600000000000002,-0.01,-0.03,-0.117
1701526434.414,19.609,19.609,-19.609,-0.0011,0.0007,-0.018600000000000002,0.003,-0.043000000000000003,-0.12
1701526434.454,19.609,19.609,-19.609,0.0006000000000000001,0.0008,-0.0507,-0.007,-0.039,-0.109
1701526434.494,19.609,19.609,-19.609,-0.002,0.00030000000000000003,0.0148,-0.001,-0.04,-0.11
1701526434.534,19.609,19.609,-19.609,0.0004,-0.0015,-0.0183,0.0,-0.045,-0.115
1701526434.574,19.609,19.609,-19.609,-0.0007,-0.0023,0.0333,-0.007,-0.051000000000000004,-0.111
1701526434.6139998,19.609,19.609,-19.609,0.0016,0.0004,-0.0388,-0.011,-0.044,-0.121
1701526434.654,19.609,19.609,-19.609,0.0,-0.0001,0.0307,0.0,-0.046,-0.123
1701526434.694,19.609,19.609,-19.609,-0.0002,-0.0016,-0.0478,-0.003,-0.048,-0.116
1701526434.734,19.609,19.609,-19.609,-0.0007,-0.0001,0.049600000000000005,-0.01,-0.049,-0.116
1701526434.774,19.609,19.609,-19.609,-0.0017000000000000001,0.0006000000000000001,-0.0297,0.0,-0.052000000000000005,-0.11900000000000001
1701526434.814,19.609,19.609,-19.609,-0.0005,-0.0002,0.0221,-0.009000000000000001,-0.035,-0.11800000000000001
1701526434.8539999,19.609,19.609,-19.609,0.002,-0.0017000000000000001,-0.0379,-0.004,-0.041,-0.117
1701526434.894,19.609,19.609,-19.609,-0.0001,0.0006000000000000001,0.0346,-0.001,-0.05,-0.116
1701526434.934,19.609,19.609,-19.609,0.0021000000000000003,-0.0009000000000000001,-0.0439,-0.006,-0.048,-0.12
1701526434.974,19.609,19.609,-19.609,-0.002,0.0017000000000000001,0.0375,-0.016,-0.053,-0.114
1701526435.014,19.609,19.609,-19.609,-0.0009000000000000001,-0.0021000000000000003,-0.004,0.002,-0.046,-0.107
1701526435.054,19.609,19.609,-19.609,0.0004,0.00030000000000000003,-0.043500000000000004,0.005,-0.042,-0.115
1701526435.0939999,19.609,19.609,-19.609,-0.0016,0.0002,0.0346,-0.013000000000000001,-0.035,-0.115
1701526435.134,19.609,19.609,-19.609,0.0007,0.0,-0.0417,-0.021,-0.023,-0.101
1701526435.174,19.609,19.609,-19.609,-0.0011,0.0018000000000000002,0.0373,-0.001,-0.042,-0.107
1701526435.214,19.609,19.609,-19.609,0.0004,0.0001,-0.029900000000000003,0.009000000000000001,-0.044,-0.10200000000000001
1701526435.254,19.609,19.609,-19.609,0.0006000000000000001,-0.0007,0.024,-0.001,-0.044,-0.10200000000000001
1701526435.294,19.609,19.609,-19.609,0.0015,0.0018000000000000002,0.0028,0.0,-0.038,-0.107
1701526435.3339999,19.609,19.609,-19.609,-0.001,-0.0004,-0.014400000000000001,-0.001,-0.05,-0.105
1701526435.374,19.609,19.609,-19.609,0.0029000000000000002,0.0012000000000000001,0.0082,-0.009000000000000001,-0.029,-0.098
1701526435.414,19.609,19.609,-19.609,0.0001,0.0009000000000000001,-0.0367,-0.024,-0.04,-0.096
1701526435.454,19.609,19.609,-19.609,0.0011,0.0006000000000000001,0.0244,0.011,-0.038,-0.11
1701526435.494,19.609,19.609,-19.609,-0.0012000000000000001,-0.0021000000000000003,-0.0432,0.017,-0.03,-0.112
1701526435.534,19.609,19.609,-19.609,-0.0015,-0.0009000000000000001,0.0386,-0.009000000000000001,-0.037,-0.11900000000000001
1701526435.574,19.609,19.609,-19.609,-0.0028,0.0014,-0.0108,-0.014,-0.035,-0.121
1701526435.614,19.609,19.609,-19.609,-0.0012000000000000001,0.0015,0.0109,-0.005,-0.032,-0.113
1701526435.654,19.609,19.609,-19.609,0.00030000000000000003,0.0,-0.0668,0.002,-0.038,-0.113
1701526435.694,19.609,19.609,-19.609,-0.0006000000000000001,-0.002,0.0528,0.008,-0.037,-0.114
1701526435.734,19.609,19.609,-19.609,0.0011,-0.0014,-0.0224,-0.009000000000000001,-0.039,-0.11800000000000001
1701526435.774,19.609,19.609,-19.609,0.0001,-0.0011,0.0114,-0.002,-0.043000000000000003,-0.111
1701526435.814,19.609,19.609,-19.609,0.00030000000000000003,-0.0007,0.0036000000000000003,0.014,-0.035,-0.125
1701526435.854,19.609,19.609,-19.609,0.0,0.0008,-0.0055000000000000005,-0.001,-0.037,-0.129
1701526435.894,19.609,19.609,-19.609,0.0043,0.0013000000000000002,-0.0405,-0.017,-0.032,-0.11800000000000001
1701526435.934,19.609,19.609,-19.609,-0.0004,0.0005,0.032,-0.006,-0.027,-0.113
1701526435.974,19.609,19.609,-19.609,-0.0017000000000000001,0.0007,-0.0023,0.005,-0.033,-0.114
1701526436.014,19.609,19.609,-19.609,-0.00030000000000000003,-0.0009000000000000001,-0.0048000000000000004,0.006,-0.035,-0.107
1701526436.054,19.609,19.609,-19.609,-0.0006000000000000001,0.0015,-0.0167,0.013000000000000001,-0.035,-0.111
1701526436.094,19.609,19.609,-19.609,0.0,0.0006000000000000001,0.0033,0.0,-0.04,-0.113
1701526436.134,19.609,19.609,-19.609,0.0013000000000000002,0.0004,-0.043300000000000005,-0.01,-0.046,-0.115
1701526436.174,19.609,19.609,-19.609,-0.0048000000000000004,0.0002,0.0443,-0.008,-0.047,-0.115
1701526436.214,19.609,19.609,-19.609,0.0006000000000000001,-0.0023,-0.035500000000000004,-0.01,-0.043000000000000003,-0.116
1701526436.254,19.609,19.609,-19.609,-0.0022,-0.00030000000000000003,0.029400000000000003,-0.019,-0.03,-0.108
1701526436.294,19.609,19.609,-19.609,-0.00030000000000000003,-0.0008,-0.031,-0.018000000000000002,-0.034,-0.107
1701526436.334,19.609,19.609,-19.609,0.0002,0.0008,0.0261,0.006,-0.046,-0.112
1701526436.374,19.609,19.609,-19.609,-0.0001,0.0,-0.051300000000000005,0.0,-0.047,-0.107
1701526436.414,19.609,19.609,-19.609,-0.0006000000000000001,-0.0004,0.0393,0.002,-0.055,-0.115
1701526436.454,19.609,19.609,-19.609,-0.0011,0.0017000000000000001,-0.055,-0.001,-0.062,-0.11800000000000001
1701526436.494,19.609,19.609,-19.609,-0.00030000000000000003,0.0008,0.0413,-0.014,-0.059000000000000004,-0.122
1701526436.534,19.609,19.609,-19.609,-0.0001,0.0009000000000000001,-0.0476,-0.01,-0.049,-0.113
1701526436.574,19.609,19.609,-19.609,-0.0025,-0.0014,0.0441,-0.008,-0.052000000000000005,-0.12
1701526436.6139998,19.609,19.609,-19.609,-0.0018000000000000002,0.0007,-0.0324,-0.004,-0.05,-0.121
1701526436.654,19.609,19.609,-19.609,-0.0046,0.0002,0.0256,-0.009000000000000001,-0.025,-0.10200000000000001
1701526436.694,19.609,19.609,-19.609,0.0011,-0.00030000000000000003,-0.044700000000000004,-0.006,-0.025,-0.11
1701526436.734,19.609,19.609,-19.609,-0.0007,-0.00030000000000000003,0.0089,-0.009000000000000001,-0.058,-0.112
1701526436.774,19.609,19.609,-19.609,0.0022,0.0013000000000000002,0.0179,-0.004,-0.044,-0.12
1701526436.814,19.609,19.609,-19.609,-0.0022,-0.0007,-0.0114,-0.007,-0.051000000000000004,-0.11900000000000001
1701526436.8539999,19.609,19.609,-19.609,-0.0007,0.0012000000000000001,-0.0358,0.004,-0.048,-0.123
1701526436.894,19.609,19.609,-19.609,-0.0015,0.002,0.0349,-0.009000000000000001,-0.048,-0.11800000000000001
1701526436.934,19.609,19.609,-19.609,0.0,0.0021000000000000003,-0.02,-0.009000000000000001,-0.035,-0.11900000000000001
1701526436.974,19.609,19.609,-19.609,-0.0028,-0.0007,0.0181,-0.004,-0.031,-0.108
1701526437.014,19.609,19.609,-19.609,0.0,0.0007,-0.0268,-0.009000000000000001,-0.034,-0.107
1701526437.054,19.609,19.609,-19.609,0.002,0.0013000000000000002,0.014400000000000001,-0.006,-0.051000000000000004,-0.105
1701526437.0939999,19.609,19.609,-19.609,0.00030000000000000003,0.0011,-0.007,-0.008,-0.052000000000000005,-0.108
1701526437.134,19.609,19.609,-19.609,-0.0009000000000000001,-0.0004,-0.006200000000000001,-0.003,-0.062,-0.109
1701526437.174,19.609,19.609,-19.609,-0.0004,-0.0012000000000000001,-0.0465,0.002,-0.053,-0.11800000000000001
1701526437.214,19.609,19.609,-19.609,-0.0018000000000000002,0.0004,0.049,-0.021,-0.035,-0.12
1701526437.254,19.609,19.609,-19.609,-0.0013000000000000002,-0.0014,-0.0262,-0.014,-0.023,-0.109
1701526437.294,19.609,19.609,-19.609,0.0,0.0009000000000000001,0.0178,-0.004,-0.025,-0.10300000000000001
1701526437.3339999,19.609,19.609,-19.609,-0.0021000000000000003,0.0006000000000000001,-0.0264,0.006,-0.033,-0.108
1701526437.374,19.609,19.609,-19.609,-0.0011,0.0011,0.0102,-0.001,-0.026000000000000002,-0.1
1701526437.414,19.609,19.609,-19.609,0.0012000000000000001,0.00030000000000000003,0.0021000000000000003,-0.002,-0.034,-0.11800000000000001
1701526437.454,19.609,19.609,-19.609,0.0004,0.0021000000000000003,-0.0463,0.002,-0.055,-0.122
1701526437.494,19.609,19.609,-19.609,-0.001,-0.0007,0.051800000000000006,-0.004,-0.049,-0.116
1701526437.534,19.609,19.609,-19.609,0.0015,0.0009000000000000001,-0.042,-0.004,-0.042,-0.116
1701526437.574,19.609,19.609,-19.609,-0.0005,0.0012000000000000001,0.027100000000000003,-0.012,-0.038,-0.122
1701526437.614,19.609,19.609,-19.609,0.0,0.0,0.0013000000000000002,-0.019,-0.029,-0.111
1701526437.654,19.609,19.609,-19.609,-0.0026000000000000003,0.0006000000000000001,-0.0304,-0.008,-0.035,-0.117
1701526437.694,19.609,19.609,-19.609,-0.00030000000000000003,0.0012000000000000001,0.0177,-0.002,-0.034,-0.11800000000000001
1701526437.734,19.609,19.609,-19.609,-0.0001,0.0002,0.006200000000000001,-0.004,-0.033,-0.109
1701526437.774,19.609,19.609,-19.609,-0.0001,-0.0014,-0.051000000000000004,0.003,-0.041,-0.115
1701526437.814,19.609,19.609,-19.609,0.0009000000000000001,-0.0015,0.043300000000000005,-0.003,-0.036000000000000004,-0.116
1701526437.854,19.609,19.609,-19.609,0.00030000000000000003,-0.0007,0.0011,-0.005,-0.05,-0.115
1701526437.894,19.609,19.609,-19.609,-0.0001,-0.001,-0.0488,-0.006,-0.051000000000000004,-0.12
1701526437.934,19.609,19.609,-19.609,-0.0001,0.0,0.0159,-0.006,-0.051000000000000004,-0.117
1701526437.974,19.609,19.609,-19.609,-0.0029000000000000002,0.0017000000000000001,0.0181,0.0,-0.04,-0.101
1701526438.014,19.609,19.609,-19.609,-0.0028,-0.0006000000000000001,0.0125,-0.007,-0.037,-0.109
1701526438.054,19.609,19.609,-19.609,-0.0004,-0.0011,-0.0623,-0.012,-0.048,-0.114
1701526438.094,19.609,19.609,-19.609,-0.0007,0.00030000000000000003,-0.0446,-0.015,-0.037,-0.108
1701526438.134,19.609,19.609,-19.609,0.0007,-0.0007,0.050100000000000006,0.0,-0.039,-0.11
1701526438.174,19.609,19.609,-19.609,0.0004,0.0012000000000000001,-0.0325,0.0,-0.045,-0.117
1701526438.214,19.609,19.609,-19.609,-0.0004,0.0014,0.0198,-0.003,-0.05,-0.109
1701526438.254,19.609,19.609,-19.609,0.0006000000000000001,0.0021000000000000003,-0.0438,-0.004,-0.051000000000000004,-0.108
1701526438.294,19.609,19.609,-19.609,0.0,-0.0026000000000000003,0.0417,0.0,-0.045,-0.123
1701526438.334,19.609,19.609,-19.609,0.0021000000000000003,0.0005,-0.0073,-0.008,-0.049,-0.114
1701526438.374,19.609,19.609,-19.609,0.0001,0.0012000000000000001,0.0033,-0.01,-0.053,-0.111
1701526438.414,19.609,19.609,-19.609,0.00030000000000000003,0.0008,0.005,0.0,-0.038,-0.11800000000000001
1701526438.454,19.609,19.609,-19.609,-0.0009000000000000001,-0.0009000000000000001,-0.038900000000000004,-0.004,-0.032,-0.115
1701526438.494,19.609,19.609,-19.609,-0.0004,0.0012000000000000001,-0.0004,-0.011,-0.039,-0.111
1701526438.534,19.609,19.609,-19.609,-0.0007,0.0023,0.019100000000000002,-0.004,-0.038,-0.11
1701526438.574,19.609,19.609,-19.609,-0.0005,0.0023,-0.0211,-0.005,-0.044,-0.115
1701526438.6139998,19.609,19.609,-19.609,-0.0001,-0.0013000000000000002,0.0258,-0.003,-0.05,-0.108
1701526438.654,19.609,19.609,-19.609,-0.0022,0.0013000000000000002,-0.0006000000000000001,-0.01,-0.033,-0.116
1701526438.694,19.609,19.609,-19.609,-0.004200000000000001,0.0006000000000000001,-0.056600000000000004,-0.002,-0.033,-0.106
1701526438.734,19.609,19.609,-19.609,-0.0015,-0.00030000000000000003,0.049600000000000005,-0.004,-0.029,-0.11900000000000001
1701526438.774,19.609,19.609,-19.609,-0.0013000000000000002,-0.0023,-0.0444,-0.016,-0.034,-0.122
1701526438.814,19.609,19.609,-19.609,0.0026000000000000003,-0.0002,0.037700000000000004,-0.018000000000000002,-0.042,-0.10300000000000001
1701526438.8539999,19.609,19.609,-19.609,-0.0017000000000000001,-0.002,-0.0148,-0.005,-0.036000000000000004,-0.107
1701526438.894,19.609,19.609,-19.609,-0.0034000000000000002,0.0009000000000000001,0.007500000000000001,0.019,-0.042,-0.111
1701526438.934,19.609,19.609,-19.609,0.0,0.0,0.0061,-0.005,-0.042,-0.106
1701526438.974,19.609,19.609,-19.609,-0.004200000000000001,0.0006000000000000001,-0.0599,-0.018000000000000002,-0.04,-0.115
1701526439.014,19.609,19.609,-19.609,-0.0007,0.0,0.050800000000000005,-0.002,-0.044,-0.124
1701526439.054,19.609,19.609,-19.609,-0.0004,0.0009000000000000001,-0.0461,-0.014,-0.046,-0.116
1701526439.0939999,19.609,19.609,-19.609,0.0006000000000000001,-0.0001,0.037200000000000004,-0.001,-0.068,-0.116
1701526439.134,19.609,19.609,-19.609,-0.0018000000000000002,-0.0009000000000000001,-0.030500000000000003,0.0,-0.045,-0.117
1701526439.174,19.609,19.609,-19.609,-0.001,0.0011,0.0184,-0.012,-0.036000000000000004,-0.111
1701526439.214,19.609,19.609,-19.609,0.0006000000000000001,0.0009000000000000001,-0.0235,-0.014,-0.035,-0.114
1701526439.254,19.609,19.609,-19.609,-0.0004,-0.00030000000000000003,0.020200000000000003,-0.006,-0.024,-0.115
1701526439.294,19.609,19.609,-19.609,0.0001,0.0009000000000000001,-0.0376,0.0,-0.051000000000000004,-0.12
1701526439.3339999,19.609,19.609,-19.609,-0.0015,-0.0007,0.031400000000000004,-0.003,-0.053,-0.114
1701526439.374,19.609,19.609,-19.609,0.00030000000000000003,-0.0004,-0.031200000000000002,-0.017,-0.044,-0.124
1701526439.414,19.609,19.609,-19.609,0.0001,0.001,0.024200000000000003,-0.011,-0.046,-0.107
1701526439.454,19.609,19.609,-19.609,0.0009000000000000001,-0.0009000000000000001,-0.0476,0.008,-0.038,-0.107
1701526439.494,19.609,19.609,-19.609,0.0006000000000000001,-0.0006000000000000001,0.046200000000000005,0.005,-0.039,-0.111
1701526439.534,19.609,19.609,-19.609,0.0,0.0015,-0.0129,-0.01,-0.042,-0.10300000000000001
1701526439.574,19.609,19.609,-19.609,-0.0027,-0.0021000000000000003,0.0097,-0.008,-0.039,-0.11
1701526439.614,19.609,19.609,-19.609,0.0023,-0.0017000000000000001,-0.050800000000000005,0.002,-0.048,-0.11800000000000001
1701526439.654,19.609,19.609,-19.609,-0.001,0.00030000000000000003,0.0448,-0.003,-0.045,-0.111
1701526439.694,19.609,19.609,-19.609,-0.0006000000000000001,0.0007,-0.025500000000000002,-0.004,-0.044,-0.106
1701526439.734,19.609,19.609,-19.609,-0.0005,-0.0004,0.015000000000000001,-0.004,-0.044,-0.111
1701526439.774,19.609,19.609,-19.609,0.0021000000000000003,0.0001,-0.040400000000000005,-0.006,-0.053,-0.10300000000000001
1701526439.814,19.609,19.609,-19.609,0.0025,0.003,0.0357,0.0,-0.058,-0.10200000000000001
1701526439.854,19.609,19.609,-19.609,0.0012000000000000001,0.0006000000000000001,-0.0114,0.018000000000000002,-0.047,-0.111
1701526439.894,19.609,19.609,-19.609,0.0023,0.0017000000000000001,0.0031000000000000003,0.0,-0.046,-0.113
1701526439.934,19.609,19.609,-19.609,0.0006000000000000001,-0.0006000000000000001,-0.035,-0.007,-0.051000000000000004,-0.113
1701526439.974,19.609,19.609,-19.609,-0.0009000000000000001,0.002,0.035,0.0,-0.055,-0.116
1701526440.014,19.609,19.609,-19.609,-0.0006000000000000001,-0.0001,-0.054,-0.005,-0.046,-0.113
1701526440.054,19.609,19.609,-19.609,-0.0006000000000000001,-0.0028,0.0427,-0.001,-0.046,-0.112
1701526440.094,19.609,19.609,-19.609,0.001,0.0014,-0.0446,-0.008,-0.051000000000000004,-0.114
1701526440.134,19.609,19.609,-19.609,0.0008,0.0015,0.031900000000000005,-0.007,-0.051000000000000004,-0.115
1701526440.174,19.609,19.609,-19.609,-0.0036000000000000003,0.0021000000000000003,-0.0031000000000000003,0.0,-0.059000000000000004,-0.112
1701526440.214,19.609,19.609,-19.609,0.0017000000000000001,-0.0001,-0.0014,0.006,-0.06,-0.127
1701526440.254,19.609,19.609,-19.609,-0.0021000000000000003,-0.0001,-0.041600000000000005,-0.01,-0.062,-0.122
1701526440.294,19.609,19.609,-19.609,0.0006000000000000001,0.0007,0.038,-0.029,-0.049,-0.12
1701526440.334,19.609,19.609,-19.609,0.0026000000000000003,-0.0001,-0.0199,-0.014,-0.034,-0.132
1701526440.374,19.609,19.609,-19.609,-0.0001,-0.0006000000000000001,-0.0029000000000000002,-0.012,-0.038,-0.127
1701526440.414,19.609,19.609,-19.609,0.0017000000000000001,0.0001,-0.014700000000000001,-0.032,-0.052000000000000005,-0.14200000000000002
1701526440.454,19.609,19.609,-19.609,-0.002,-0.0014,0.024300000000000002,-0.055,-0.049,-0.163
1701526440.494,19.609,19.609,-19.609,-0.0009000000000000001,0.0014,-0.0275,-0.067,-0.058,-0.167
1701526440.534,19.609,19.609,-19.609,-0.0011,0.0009000000000000001,0.0247,-0.066,-0.056,-0.166
1701526440.574,19.609,19.609,-19.609,-0.0023,0.0012000000000000001,0.0031000000000000003,-0.047,-0.047,-0.155
1701526440.6139998,19.609,19.609,-19.609,0.0,0.0017000000000000001,-0.0164,-0.032,-0.031,-0.156
1701526440.654,19.609,19.609,-19.609,0.0011,0.0004,-0.0015,-0.025,-0.03,-0.14300000000000002
1701526440.694,19.609,19.609,-19.609,-0.0001,-0.0014,0.013900000000000001,-0.01,-0.046,-0.137
1701526440.734,19.609,19.609,-19.609,0.0015,-0.0007,-0.0422,-0.001,-0.053,-0.14100000000000001
1701526440.774,19.609,19.609,-19.609,0.00030000000000000003,-0.00030000000000000003,0.0334,-0.024,-0.04,-0.152
1701526440.814,19.609,19.609,-19.609,0.0009000000000000001,-0.0009000000000000001,0.0015,-0.04,-0.044,-0.151
1701526440.8539999,19.609,19.609,-19.609,-0.0017000000000000001,0.0,-0.0184,-0.055,-0.043000000000000003,-0.15
1701526440.894,19.609,19.609,-19.609,0.002,-0.0014,0.0059,-0.022,-0.041,-0.16
1701526440.934,19.609,19.609,-19.609,-0.0013000000000000002,-0.0029000000000000002,-0.06770000000000001,-0.042,-0.028,-0.129
1701526440.974,19.609,19.609,-19.609,-0.0018000000000000002,-0.0012000000000000001,0.0664,0.006,-0.032,-0.117
1701526441.014,19.609,19.609,-19.609,0.00030000000000000003,-0.0014,-0.0222,-0.005,-0.038,-0.124
1701526441.054,19.609,19.609,-19.609,0.0,0.0006000000000000001,-0.021500000000000002,-0.005,-0.046,-0.12
1701526441.0939999,19.609,19.609,-19.609,-0.0017000000000000001,0.0,0.026600000000000002,-0.01,-0.03,-0.116
1701526441.134,19.609,19.609,-19.609,-0.0012000000000000001,-0.0006000000000000001,-0.0298,-0.012,-0.026000000000000002,-0.117
1701526441.174,19.609,19.609,-19.609,-0.0017000000000000001,0.001,0.009600000000000001,-0.017,-0.032,-0.11900000000000001
1701526441.214,19.609,19.609,-19.609,-0.0021000000000000003,0.0001,0.0061,-0.013000000000000001,-0.033,-0.115
1701526441.254,19.609,19.609,-19.609,-0.0006000000000000001,-0.002,-0.0392,-0.004,-0.032,-0.117
1701526441.294,19.609,19.609,-19.609,-0.0017000000000000001,-0.0014,0.0158,-0.004,-0.041,-0.109
1701526441.3339999,19.609,19.609,-19.609,-0.0007,-0.0015,-0.0307,0.0,-0.057,-0.099
1701526441.374,19.609,19.609,-19.609,0.001,-0.0011,0.0281,0.007,-0.038,-0.108
1701526441.414,19.609,19.609,-19.609,0.0004,-0.00030000000000000003,-0.036500000000000005,0.001,-0.033,-0.107
1701526441.454,19.609,19.609,-19.609,-0.0054,0.0,0.0335,-0.001,-0.039,-0.111
1701526441.494,19.609,19.609,-19.609,-0.0038,0.0021000000000000003,0.0017000000000000001,-0.003,-0.041,-0.121
1701526441.534,19.609,19.609,-19.609,-0.0017000000000000001,0.00030000000000000003,-0.014,-0.011,-0.034,-0.115
1701526441.574,19.609,19.609,-19.609,-0.00030000000000000003,0.0002,-0.039900000000000005,-0.01,-0.035,-0.108
1701526441.614,19.609,19.609,-19.609,-0.001,-0.0007,0.038700000000000005,-0.003,-0.039,-0.105
1701526441.654,19.609,19.609,-19.609,-0.00030000000000000003,0.0001,-0.049,0.009000000000000001,-0.03,-0.10200000000000001
1701526441.694,19.609,19.609,-19.609,0.0014,-0.0032,0.0368,-0.001,-0.025,-0.117
1701526441.734,19.609,19.609,-19.609,-0.00030000000000000003,-0.0009000000000000001,0.0386,-0.001,-0.028,-0.1
1701526441.774,19.609,19.609,-19.609,-0.0014,0.0,-0.036000000000000004,0.004,-0.035,-0.107
1701526441.814,19.609,19.609,-19.609,0.0007,0.0014,0.023,0.018000000000000002,-0.054,-0.113
1701526441.854,19.609,19.609,-19.609,0.0004,0.0018000000000000002,0.006200000000000001,0.005,-0.059000000000000004,-0.11
1701526441.894,19.609,19.609,-19.609,-0.0007,0.0006000000000000001,-0.009000000000000001,-0.003,-0.047,-0.109
1701526441.934,19.609,19.609,-19.609,-0.0004,-0.0001,0.015700000000000002,0.005,-0.038,-0.109
1701526441.974,19.609,19.609,-19.609,-0.0008,0.0,-0.0238,0.0,-0.042,-0.117
1701526442.014,19.609,19.609,-19.609,0.0022,0.0015,0.0106,0.005,-0.037,-0.111
1701526442.054,19.609,19.609,-19.609,0.0004,-0.0018000000000000002,0.0,0.008,-0.038,-0.116
1701526442.094,19.609,19.609,-19.609,-0.0007,0.0019,-0.0426,0.013000000000000001,-0.04,-0.11800000000000001
1701526442.134,19.609,19.609,-19.609,-0.0016,-0.0007,0.04,0.006,-0.052000000000000005,-0.114
1701526442.174,19.609,19.609,-19.609,-0.003,0.0001,-0.0407,0.007,-0.05,-0.117
1701526442.214,19.609,19.609,-19.609,0.0015,0.0017000000000000001,0.0263,-0.009000000000000001,-0.047,-0.116
1701526442.254,19.609,19.609,-19.609,0.0008,-0.00030000000000000003,0.005200000000000001,-0.014,-0.034,-0.127
1701526442.294,19.609,19.609,-19.609,-0.0012000000000000001,0.0007,-0.0592,-0.028,-0.042,-0.121
1701526442.334,19.609,19.609,-19.609,-0.001,0.0007,0.0281,0.0,-0.079,-0.11900000000000001
1701526442.374,19.609,19.609,-19.609,0.001,-0.0006000000000000001,0.0176,-0.001,-0.045,-0.11900000000000001
1701526442.414,19.609,19.609,-19.609,0.0006000000000000001,0.0,-0.016800000000000002,-0.007,-0.049,-0.109
1701526442.454,19.609,19.609,-19.609,0.002,-0.0009000000000000001,0.015700000000000002,0.0,-0.04,-0.10200000000000001
1701526442.494,19.609,19.609,-19.609,0.0009000000000000001,0.0001,-0.0417,0.016,-0.015,-0.111
1701526442.534,19.609,19.609,-19.609,-0.0004,0.0007,0.038200000000000005,-0.003,-0.027,-0.105
1701526442.574,19.609,19.609,-19.609,-0.0005,0.0002,-0.0425,-0.002,-0.047,-0.108
1701526442.6139998,19.609,19.609,-19.609,-0.0012000000000000001,0.0019,0.032100000000000004,0.001,-0.062,-0.114
1701526442.654,19.609,19.609,-19.609,0.0004,-0.002,-0.0281,-0.022,-0.049,-0.106
1701526442.694,19.609,19.609,-19.609,0.00030000000000000003,-0.00030000000000000003,0.020900000000000002,-0.003,-0.016,-0.11
1701526442.734,19.609,19.609,-19.609,-0.002,0.0001,0.0105,-0.002,-0.018000000000000002,-0.121
1701526442.774,19.609,19.609,-19.609,-0.0009000000000000001,0.002,-0.0551,-0.01,-0.035,-0.109
1701526442.814,19.609,19.609,-19.609,-0.0026000000000000003,-0.0001,0.0316,0.0,-0.04,-0.111
1701526442.8539999,19.609,19.609,-19.609,-0.0008,-0.0008,-0.0379,0.007,-0.045,-0.11800000000000001
1701526442.894,19.609,19.609,-19.609,-0.0009000000000000001,0.0009000000000000001,0.035,-0.007,-0.043000000000000003,-0.109
1701526442.934,19.609,19.609,-19.609,-0.0001,0.0001,0.0028,-0.007,-0.037,-0.112
1701526442.974,19.609,19.609,-19.609,-0.0006000000000000001,-0.0023,-0.046700000000000005,-0.007,-0.027,-0.116
1701526443.014,19.609,19.609,-19.609,-0.0023,0.0,0.0375,-0.009000000000000001,-0.029,-0.117
1701526443.054,19.609,19.609,-19.609,-0.0015,0.0,-0.0095,-0.006,-0.032,-0.12
1701526443.0939999,19.609,19.609,-19.609,0.0004,0.0004,0.001,-0.007,-0.049,-0.11800000000000001
1701526443.134,19.609,19.609,-19.609,0.0012000000000000001,-0.0007,-0.0213,-0.006,-0.046,-0.111
1701526443.174,19.609,19.609,-19.609,-0.0006000000000000001,0.0024000000000000002,-0.0173,0.003,-0.048,-0.107
1701526443.214,19.609,19.609,-19.609,-0.0005,0.0006000000000000001,0.024200000000000003,0.001,-0.047,-0.106
1701526443.254,19.609,19.609,-19.609,-0.0009000000000000001,-0.0007,-0.027800000000000002,-0.012,-0.043000000000000003,-0.111
1701526443.294,19.609,19.609,-19.609,0.0008,0.0002,-0.0436,-0.011,-0.034,-0.099
1701526443.3339999,19.609,19.609,-19.609,-0.001,-0.0007,0.0562,-0.001,-0.031,-0.098
1701526443.374,19.609,19.609,-19.609,0.00030000000000000003,0.0012000000000000001,-0.0361,0.003,-0.046,-0.106
1701526443.414,19.609,19.609,-19.609,0.001,-0.0008,0.0222,-0.001,-0.046,-0.099
1701526443.454,19.609,19.609,-19.609,-0.0004,-0.0005,-0.033800000000000004,-0.004,-0.043000000000000003,-0.105
1701526443.494,19.609,19.609,-19.609,0.001,-0.002,0.042300000000000004,-0.006,-0.043000000000000003,-0.112
1701526443.534,19.609,19.609,-19.609,-0.0005,-0.0016,-0.0193,-0.01,-0.043000000000000003,-0.113
1701526443.574,19.609,19.609,-19.609,-0.0005,0.0,-0.0468,-0.006,-0.049,-0.105
1701526443.614,19.609,19.609,-19.609,-0.0001,-0.0002,0.0499,-0.004,-0.037,-0.109
1701526443.654,19.609,19.609,-19.609,0.00030000000000000003,-0.0006000000000000001,-0.0413,-0.003,-0.04,-0.113
1701526443.694,19.609,19.609,-19.609,0.002,0.0007,0.0408,-0.004,-0.04,-0.10400000000000001
1701526443.734,19.609,19.609,-19.609,0.00030000000000000003,-0.0026000000000000003,-0.0434,-0.002,-0.041,-0.107
1701526443.774,19.609,19.609,-19.609,0.004,0.0026000000000000003,0.0366,-0.008,-0.042,-0.11800000000000001
1701526443.814,19.609,19.609,-19.609,-0.0023,0.0028,-0.036500000000000005,-0.006,-0.043000000000000003,-0.111
1701526443.854,19.609,19.609,-19.609,0.001,-0.0006000000000000001,0.035300000000000005,-0.01,-0.045,-0.11800000000000001
1701526443.894,19.609,19.609,-19.609,-0.0015,0.0018000000000000002,-0.0347,-0.006,-0.04,-0.114
1701526443.934,19.609,19.609,-19.609,-0.0021000000000000003,-0.0013000000000000002,0.0322,-0.015,-0.034,-0.111
1701526443.974,19.609,19.609,-19.609,-0.0012000000000000001,0.0014,-0.0548,0.002,-0.047,-0.111
1701526444.014,19.609,19.609,-19.609,-0.0009000000000000001,0.0017000000000000001,0.019,-0.013000000000000001,-0.036000000000000004,-0.117
1701526444.054,19.609,19.609,-19.609,0.0006000000000000001,0.0005,0.0195,-0.022,-0.034,-0.107
1701526444.094,19.609,19.609,-19.609,-0.0026000000000000003,-0.0012000000000000001,-0.0167,-0.002,-0.034,-0.10200000000000001
1701526444.134,19.609,19.609,-19.609,0.0016,0.0,0.0195,0.0,-0.04,-0.109
1701526444.174,19.609,19.609,-19.609,-0.0006000000000000001,-0.0019,0.0045000000000000005,-0.013000000000000001,-0.04,-0.097
1701526444.214,19.609,19.609,-19.609,0.001,0.00030000000000000003,-0.0403,-0.009000000000000001,-0.032,-0.108
1701526444.254,19.609,19.609,-19.609,-0.0014,0.00030000000000000003,0.0229,-0.001,-0.03,-0.11
1701526444.294,19.609,19.609,-19.609,-0.0004,0.0021000000000000003,-0.0213,-0.004,-0.039,-0.12
1701526444.334,19.609,19.609,-19.609,0.00030000000000000003,-0.0022,0.0171,-0.008,-0.045,-0.112
1701526444.374,19.609,19.609,-19.609,0.0,-0.0004,-0.0219,-0.007,-0.044,-0.11
1701526444.414,19.609,19.609,-19.609,-0.0001,0.0,0.016900000000000002,-0.001,-0.047,-0.113
1701526444.454,19.609,19.609,-19.609,-0.00030000000000000003,0.0017000000000000001,-0.0448,-0.002,-0.046,-0.105
1701526444.494,19.609,19.609,-19.609,0.0001,-0.0021000000000000003,0.0393,0.001,-0.046,-0.105
1701526444.534,19.609,19.609,-19.609,0.0,-0.001,-0.0442,0.003,-0.046,-0.116
1701526444.574,19.609,19.609,-19.609,-0.0004,-0.002,0.0346,-0.007,-0.046,-0.111
1701526444.6139998,19.609,19.609,-19.609,-0.0026000000000000003,-0.0013000000000000002,-0.038,-0.003,-0.047,-0.11900000000000001
1701526444.654,19.609,19.609,-19.609,-0.0004,-0.0009000000000000001,0.036000000000000004,-0.001,-0.049,-0.122
1701526444.694,19.609,19.609,-19.609,0.0,0.0002,-0.009600000000000001,-0.006,-0.057,-0.127
1701526444.734,19.609,19.609,-19.609,-0.0012000000000000001,-0.0018000000000000002,-0.0131,-0.002,-0.08,-0.157
1701526444.774,19.609,19.609,-19.609,0.0012000000000000001,0.00030000000000000003,0.005,-0.038,-0.14200000000000002,-0.185
1701526444.814,19.609,19.609,-19.609,-0.0007,0.003,-0.0097,-0.109,-0.23,-0.184
1701526444.8539999,19.609,19.609,-19.609,0.001,0.0017000000000000001,0.0102,-0.199,-0.358,-0.212
1701526444.894,19.609,19.609,-19.609,-0.0024000000000000002,0.0004,-0.017400000000000002,-0.209,-0.41100000000000003,-0.184
1701526444.934,19.609,19.609,-19.609,-0.0021000000000000003,-0.0006000000000000001,0.018000000000000002,-0.179,-0.47800000000000004,-0.14100000000000001
1701526444.974,19.609,19.609,-19.609,0.0004,0.001,-0.0238,-0.224,-0.47200000000000003,-0.113
1701526445.014,19.609,19.609,-19.609,-0.0006000000000000001,-0.00030000000000000003,-0.0325,-0.28400000000000003,-0.496,-0.125
1701526445.054,19.609,19.609,-19.609,0.0004,0.00030000000000000003,0.0408,-0.271,-0.594,-0.14200000000000002
1701526445.0939999,19.609,19.609,-19.609,-0.0031000000000000003,0.0001,-0.0014,-0.198,-0.658,-0.156
1701526445.134,19.609,19.609,-19.609,0.0009000000000000001,-0.0006000000000000001,-0.0531,-0.159,-0.6920000000000001,-0.152
1701526445.174,19.609,19.609,-19.609,0.0006000000000000001,-0.0009000000000000001,0.0448,-0.138,-0.72,-0.156
1701526445.214,19.609,19.609,-19.609,0.0006000000000000001,0.0023,0.0054,-0.106,-0.718,-0.161
1701526445.254,19.609,19.609,-19.609,0.0021000000000000003,0.0025,-0.06620000000000001,-0.076,-0.752,-0.171
1701526445.294,19.609,19.609,-19.609,0.0,0.0017000000000000001,0.0834,-0.044,-0.707,-0.17200000000000001
1701526445.3339999,19.609,19.609,-19.609,-0.0029000000000000002,0.0001,-0.031200000000000002,0.006,-0.635,-0.176
1701526445.374,19.609,19.609,-19.609,-0.0009000000000000001,-0.0012000000000000001,-0.0454,0.022,-0.5650000000000001,-0.17300000000000001
1701526445.414,19.609,19.609,-19.609,-0.0001,-0.0033,0.021,0.027,-0.505,-0.154
1701526445.454,19.609,19.609,-19.609,-0.0008,0.001,-0.0327,0.029,-0.47200000000000003,-0.151
1701526445.494,19.609,19.609,-19.609,-0.0023,-0.0001,0.0205,0.049,-0.435,-0.152
1701526445.534,19.609,19.609,-19.609,0.0007,0.0025,-0.0528,0.034,-0.43,-0.152
1701526445.574,19.609,19.609,-19.609,-0.001,0.0,0.0606,-0.005,-0.438,-0.127
1701526445.614,19.609,19.609,-19.609,-0.0056,0.0,-0.047,-0.04,-0.41300000000000003,-0.064
1701526445.654,19.609,19.609,-19.609,0.0012000000000000001,-0.0016,-0.0374,0.01,-0.319,-0.073
1701526445.694,19.609,19.609,-19.609,0.0014,0.0,0.0756,0.037,-0.328,-0.081
1701526445.734,19.609,19.609,-19.609,-0.0021000000000000003,-0.0023,-0.024800000000000003,0.039,-0.289,-0.07
1701526445.774,19.609,19.609,-19.609,0.0018000000000000002,0.0018000000000000002,-0.0089,-0.003,-0.232,-0.10300000000000001
1701526445.814,19.609,19.609,-19.609,-0.0014,-0.0023,0.0224,-0.05,-0.148,-0.133
1701526445.854,19.609,19.609,-19.609,-0.0007,0.0,-0.0385,-0.068,-0.053,-0.126
1701526445.894,19.609,19.609,-19.609,0.001,0.0019,0.027100000000000003,-0.046,-0.018000000000000002,-0.111
1701526445.934,19.609,19.609,-19.609,-0.0025,0.0,-0.0422,-0.006,0.011,-0.10300000000000001
1701526445.974,19.609,19.609,-19.609,-0.0007,-0.0017000000000000001,0.0347,0.01,0.0,-0.10200000000000001
1701526446.014,19.609,19.609,-19.609,0.001,0.0009000000000000001,-0.0275,-0.005,-0.02,-0.08700000000000001
1701526446.054,19.609,19.609,-19.609,-0.0004,-0.0005,0.0079,0.004,-0.061,-0.101
1701526446.094,19.609,19.609,-19.609,-0.0014,-0.0001,0.0086,0.016,-0.06,-0.113
1701526446.134,19.609,19.609,-19.609,0.0031000000000000003,-0.0011,-0.035300000000000005,0.023,-0.062,-0.11900000000000001
1701526446.174,19.609,19.609,-19.609,-0.0006000000000000001,0.0009000000000000001,0.037700000000000004,0.0,-0.04,-0.1
1701526446.214,19.609,19.609,-19.609,-0.0017000000000000001,-0.0018000000000000002,-0.0347,0.014,-0.045,-0.116
1701526446.254,19.609,19.609,-19.609,-0.001,0.0002,0.0328,-0.014,-0.04,-0.11900000000000001
1701526446.294,19.609,19.609,-19.609,-0.0006000000000000001,0.0008,-0.0465,-0.018000000000000002,-0.032,-0.127
1701526446.334,19.609,19.609,-19.609,0.001,-0.0019,0.015600000000000001,0.001,-0.018000000000000002,-0.132
1701526446.374,19.609,19.609,-19.609,0.0,-0.0004,0.015000000000000001,0.023,0.02,-0.11800000000000001
1701526446.414,19.609,19.609,-19.609,0.0017000000000000001,-0.001,-0.030500000000000003,0.023,-0.018000000000000002,-0.11900000000000001
1701526446.454,19.609,19.609,-19.609,-0.0005,0.0006000000000000001,0.0043,0.021,-0.02,-0.116
1701526446.494,19.609,19.609,-19.609,-0.003,0.0001,0.0151,0.015,-0.03,-0.11800000000000001
1701526446.534,19.609,19.609,-19.609,-0.0034000000000000002,-0.0009000000000000001,-0.0415,0.01,-0.036000000000000004,-0.112
1701526446.574,19.609,19.609,-19.609,-0.0009000000000000001,0.0025,0.041600000000000005,-0.005,-0.052000000000000005,-0.11900000000000001
1701526446.6139998,19.609,19.609,-19.609,-0.0015,0.0007,-0.044700000000000004,-0.007,-0.048,-0.112
1701526446.654,19.609,19.609,-19.609,-0.0014,-0.0011,0.0475,-0.008,-0.048,-0.111
1701526446.694,19.609,19.609,-19.609,-0.0012000000000000001,-0.0001,-0.0212,-0.01,-0.036000000000000004,-0.11
1701526446.734,19.609,19.609,-19.609,-0.0012000000000000001,-0.0008,0.0049,-0.015,-0.025,-0.108
1701526446.774,19.609,19.609,-19.609,-0.0023,-0.0007,-0.0244,-0.011,-0.023,-0.101
1701526446.814,19.609,19.609,-19.609,0.0,-0.0002,-0.0056,-0.001,-0.032,-0.10400000000000001
1701526446.8539999,19.609,19.609,-19.609,-0.0008,0.0009000000000000001,-0.0031000000000000003,-0.001,-0.029,-0.108
1701526446.894,19.609,19.609,-19.609,0.0004,0.0007,-0.0056,0.003,-0.039,-0.112
1701526446.934,19.609,19.609,-19.609,-0.0012000000000000001,-0.0032,-0.0073,-0.001,-0.031,-0.112
1701526446.974,19.609,19.609,-19.609,-0.0012000000000000001,-0.00030000000000000003,-0.030100000000000002,-0.005,-0.035,-0.115
1701526447.014,19.609,19.609,-19.609,-0.0007,0.0002,0.034,0.0,-0.034,-0.114
1701526447.054,19.609,19.609,-19.609,0.0009000000000000001,0.00030000000000000003,0.0097,0.005,-0.043000000000000003,-0.115
1701526447.0939999,19.609,19.609,-19.609,-0.0006000000000000001,-0.0029000000000000002,-0.0482,-0.013000000000000001,-0.036000000000000004,-0.116
1701526447.134,19.609,19.609,-19.609,0.0005,-0.0001,0.0523,0.0,-0.044,-0.10200000000000001
1701526447.174,19.609,19.609,-19.609,0.0018000000000000002,-0.0021000000000000003,0.0466,0.003,-0.042,-0.108
1701526447.214,19.609,19.609,-19.609,0.0009000000000000001,-0.0004,-0.041800000000000004,-0.012,-0.048,-0.117
1701526447.254,19.609,19.609,-19.609,0.0011,0.0,0.0275,-0.013000000000000001,-0.038,-0.109
1701526447.294,19.609,19.609,-19.609,0.0001,-0.0032,-0.0149,-0.005,-0.038,-0.113
1701526447.3339999,19.609,19.609,-19.609,0.0005,-0.001,-0.0172,-0.005,-0.028,-0.114
1701526447.374,19.609,19.609,-19.609,-0.0035,0.0006000000000000001,0.018000000000000002,-0.004,-0.035,-0.113
1701526447.414,19.609,19.609,-19.609,0.0001,0.0004,-0.0471,-0.001,-0.042,-0.106
1701526447.454,19.609,19.609,-19.609,-0.0001,-0.0009000000000000001,0.0352,0.0,-0.029,-0.107
1701526447.494,19.609,19.609,-19.609,0.0013000000000000002,0.0004,-0.0164,-0.016,-0.024,-0.106
1701526447.534,19.609,19.609,-19.609,0.0011,0.0007,-0.012,-0.003,-0.027,-0.108
1701526447.574,19.609,19.609,-19.609,0.0014,0.0011,-0.039900000000000005,-0.018000000000000002,-0.028,-0.106
1701526447.614,19.609,19.609,-19.609,0.0002,-0.0013000000000000002,0.0523,-0.016,-0.026000000000000002,-0.116
1701526447.654,19.609,19.609,-19.609,-0.0004,-0.0009000000000000001,-0.0383,-0.011,-0.027,-0.124
1701526447.694,19.609,19.609,-19.609,-0.0002,0.0016,0.015300000000000001,-0.023,-0.028,-0.11800000000000001
1701526447.734,19.609,19.609,-19.609,0.0011,-0.0005,-0.017400000000000002,-0.029,-0.027,-0.125
1701526447.774,19.609,19.609,-19.609,0.0001,0.0012000000000000001,-0.0059,-0.034,-0.021,-0.136
1701526447.814,19.609,19.609,-19.609,-0.0001,0.0021000000000000003,0.0046,-0.026000000000000002,-0.024,-0.138
