timestamp,acc_x,acc_y,acc_z,magn_x,magn_y,magn_z,gyro_x,gyro_y,gyro_z
1701528655.982,19.609,19.609,-19.609,0.0002,0.0015,0.0027,-0.013000000000000001,-0.077,-0.004
1701528656.022,19.609,19.609,-19.609,0.0015,0.0034000000000000002,-0.0076,-0.018000000000000002,-0.029,0.04
1701528656.062,19.609,19.609,-19.609,0.0012000000000000001,0.0023,0.0176,-0.075,-0.11800000000000001,0.11900000000000001
1701528656.102,19.609,19.609,-19.609,-0.0001,0.0029000000000000002,-0.0099,-0.082,-0.106,0.159
1701528656.142,19.609,19.609,-19.609,-0.0001,0.002,-0.0031000000000000003,-0.069,-0.14200000000000002,0.073
1701528656.182,19.609,19.609,-19.609,0.0036000000000000003,0.0011,-0.0044,-0.002,-0.11900000000000001,-0.023
1701528656.222,19.609,19.609,-19.609,0.0001,0.0028,0.0068000000000000005,0.051000000000000004,-0.12,-0.135
1701528656.2619998,19.609,19.609,-19.609,0.0019,0.0,-0.00030000000000000003,0.131,-0.126,-0.233
1701528656.302,19.609,19.609,-19.609,0.0001,0.002,0.0018000000000000002,0.227,-0.145,-0.442
1701528656.342,19.609,19.609,-19.609,0.0023,0.0031000000000000003,-0.0045000000000000005,0.397,-0.149,-0.547
1701528656.382,19.609,19.609,-19.609,0.0035,0.0025,-0.0129,0.519,-0.124,-0.556
1701528656.422,19.609,19.609,-19.609,-0.0004,0.0027,0.0128,0.561,-0.074,-0.535
1701528656.462,19.609,19.609,-19.609,0.0037,0.0022,-0.007500000000000001,0.465,-0.064,-0.447
1701528656.5019999,19.609,19.609,-19.609,0.001,0.0029000000000000002,-0.0028,0.377,-0.012,-0.43
1701528656.542,19.609,19.609,-19.609,-0.0017000000000000001,0.0028,0.0031000000000000003,0.369,0.078,-0.379
1701528656.582,19.609,19.609,-19.609,0.0002,0.0018000000000000002,-0.001,0.243,0.031,-0.318
1701528656.622,19.609,19.609,-19.609,-0.0022,0.0025,0.00030000000000000003,0.149,0.021,-0.317
1701528656.662,19.609,19.609,-19.609,-0.0009000000000000001,0.0031000000000000003,0.002,0.153,0.003,-0.371
1701528656.702,19.609,19.609,-19.609,-0.00030000000000000003,0.0032,-0.0011,0.17300000000000001,-0.074,-0.397
1701528656.7419999,19.609,19.609,-19.609,0.0015,0.003,0.0019,0.183,-0.138,-0.324
1701528656.782,19.609,19.609,-19.609,-0.0001,0.002,-0.0008,0.262,-0.211,-0.277
1701528656.822,19.609,19.609,-19.609,-0.0013000000000000002,-0.0001,0.0017000000000000001,0.167,-0.269,-0.133
1701528656.862,19.609,19.609,-19.609,-0.0004,0.0037,-0.0031000000000000003,0.17400000000000002,-0.306,-0.076
1701528656.902,19.609,19.609,-19.609,-0.0009000000000000001,0.0023,0.002,0.10300000000000001,-0.28700000000000003,-0.041
1701528656.942,19.609,19.609,-19.609,0.0017000000000000001,0.0028,-0.0008,0.098,-0.338,-0.032
1701528656.9819999,19.609,19.609,-19.609,0.0008,0.0023,0.0219,0.048,-0.225,-0.048
1701528657.022,19.609,19.609,-19.609,0.0005,0.0025,-0.009300000000000001,0.039,-0.196,-0.063
1701528657.062,19.609,19.609,-19.609,-0.0012000000000000001,-0.0005,0.0119,0.02,-0.14100000000000001,-0.066
1701528657.102,19.609,19.609,-19.609,0.0001,0.0034000000000000002,-0.012,0.02,-0.106,-0.073
1701528657.142,19.609,19.609,-19.609,-0.001,0.0032,-0.0012000000000000001,0.02,-0.079,-0.08600000000000001
1701528657.182,19.609,19.609,-19.609,0.0012000000000000001,0.0044,0.0051,0.033,-0.08600000000000001,-0.07200000000000001
1701528657.222,19.609,19.609,-19.609,0.00030000000000000003,0.0023,-0.001,0.024,-0.055,-0.049
1701528657.262,19.609,19.609,-19.609,0.0001,0.0036000000000000003,0.0046,0.006,-0.053,-0.045
1701528657.302,19.609,19.609,-19.609,-0.0014,0.0021000000000000003,0.0001,-0.006,-0.06,-0.034
1701528657.342,19.609,19.609,-19.609,0.0,0.0031000000000000003,-0.0019,-0.007,-0.052000000000000005,-0.01
1701528657.382,19.609,19.609,-19.609,0.0017000000000000001,0.0048000000000000004,-0.0019,-0.036000000000000004,-0.07200000000000001,-0.006
1701528657.422,19.609,19.609,-19.609,0.00030000000000000003,0.0038,-0.0021000000000000003,-0.026000000000000002,-0.066,-0.026000000000000002
1701528657.462,19.609,19.609,-19.609,0.0006000000000000001,0.0025,-0.0021000000000000003,-0.036000000000000004,-0.079,-0.077
1701528657.502,19.609,19.609,-19.609,-0.0004,0.0035,0.0006000000000000001,-0.053,-0.08600000000000001,-0.08
1701528657.542,19.609,19.609,-19.609,0.0012000000000000001,0.0014,0.0019,-0.043000000000000003,-0.08,-0.058
1701528657.582,19.609,19.609,-19.609,0.0012000000000000001,0.0024000000000000002,-0.0001,-0.05,-0.076,-0.051000000000000004
1701528657.622,19.609,19.609,-19.609,-0.0023,0.0041,0.0032,-0.038,-0.048,-0.048
1701528657.662,19.609,19.609,-19.609,0.0028,0.0053,-0.019100000000000002,-0.048,-0.001,-0.064
1701528657.702,19.609,19.609,-19.609,0.0004,0.0026000000000000003,0.0012000000000000001,-0.046,0.053,-0.081
1701528657.742,19.609,19.609,-19.609,-0.0001,0.0021000000000000003,0.0023,-0.047,0.018000000000000002,-0.078
1701528657.782,19.609,19.609,-19.609,0.0004,0.002,-0.0098,-0.027,-0.001,-0.075
1701528657.822,19.609,19.609,-19.609,0.0006000000000000001,0.0021000000000000003,-0.0256,0.004,-0.01,-0.08700000000000001
1701528657.862,19.609,19.609,-19.609,0.0015,0.0015,0.0359,0.001,-0.051000000000000004,-0.07200000000000001
1701528657.902,19.609,19.609,-19.609,0.0012000000000000001,0.0015,-0.005,-0.011,-0.054,-0.07200000000000001
1701528657.942,19.609,19.609,-19.609,-0.0012000000000000001,0.0046,-0.0038,-0.003,-0.049,-0.076
1701528657.982,19.609,19.609,-19.609,0.0025,0.003,-0.0021000000000000003,-0.012,-0.019,-0.078
1701528658.022,19.609,19.609,-19.609,0.0007,0.001,-0.0036000000000000003,-0.024,0.014,-0.075
1701528658.062,19.609,19.609,-19.609,-0.0016,0.0018000000000000002,0.0025,-0.002,0.003,-0.083
1701528658.102,19.609,19.609,-19.609,0.0023,0.0026000000000000003,0.0015,-0.018000000000000002,0.004,-0.076
1701528658.142,19.609,19.609,-19.609,0.001,0.003,-0.0023,-0.017,-0.034,-0.08
1701528658.182,19.609,19.609,-19.609,0.004,0.0037,0.0024000000000000002,-0.007,-0.044,-0.077
1701528658.222,19.609,19.609,-19.609,0.0018000000000000002,0.0021000000000000003,-0.0105,-0.018000000000000002,-0.038,-0.064
1701528658.2619998,19.609,19.609,-19.609,0.0011,0.0017000000000000001,-0.009300000000000001,-0.023,-0.029,-0.076
1701528658.302,19.609,19.609,-19.609,-0.00030000000000000003,0.0033,0.0008,-0.022,-0.008,-0.082
1701528658.342,19.609,19.609,-19.609,0.0,0.0026000000000000003,-0.0045000000000000005,-0.021,-0.005,-0.092
1701528658.382,19.609,19.609,-19.609,0.0014,0.0048000000000000004,0.0017000000000000001,-0.022,-0.006,-0.088
1701528658.422,19.609,19.609,-19.609,0.00030000000000000003,0.0014,-0.0078000000000000005,-0.007,-0.029,-0.095
1701528658.462,19.609,19.609,-19.609,0.0,0.0047,-0.0011,-0.005,-0.039,-0.096
1701528658.5019999,19.609,19.609,-19.609,0.0005,0.004,0.001,0.007,-0.026000000000000002,-0.094
1701528658.542,19.609,19.609,-19.609,0.0009000000000000001,0.0022,0.0233,0.011,-0.026000000000000002,-0.107
1701528658.582,19.609,19.609,-19.609,0.001,0.0026000000000000003,-0.0037,-0.001,-0.012,-0.12
1701528658.622,19.609,19.609,-19.609,0.0007,0.0026000000000000003,-0.0031000000000000003,0.013000000000000001,-0.016,-0.126
1701528658.662,19.609,19.609,-19.609,-0.00030000000000000003,0.0018000000000000002,-0.0031000000000000003,0.017,-0.022,-0.114
1701528658.702,19.609,19.609,-19.609,-0.0004,0.0014,0.0061,0.006,-0.046,-0.095
1701528658.7419999,19.609,19.609,-19.609,0.0018000000000000002,0.0023,0.0064,0.017,-0.042,-0.089
1701528658.782,19.609,19.609,-19.609,0.0033,0.0059,-0.0034000000000000002,0.02,-0.048,-0.08700000000000001
1701528658.822,19.609,19.609,-19.609,0.0,0.0015,-0.0026000000000000003,0.01,-0.037,-0.077
1701528658.862,19.609,19.609,-19.609,-0.0009000000000000001,0.0036000000000000003,-0.010400000000000001,-0.004,-0.024,-0.082
1701528658.902,19.609,19.609,-19.609,-0.0007,0.0029000000000000002,0.0236,-0.013000000000000001,-0.016,-0.08700000000000001
1701528658.942,19.609,19.609,-19.609,0.0015,0.0017000000000000001,-0.005,-0.02,-0.007,-0.093
1701528658.9819999,19.609,19.609,-19.609,0.0012000000000000001,0.0022,-0.0089,-0.019,-0.021,-0.083
1701528659.022,19.609,19.609,-19.609,-0.0012000000000000001,0.0025,-0.0045000000000000005,-0.025,-0.014,-0.07200000000000001
1701528659.062,19.609,19.609,-19.609,0.0026000000000000003,0.0032,-0.0017000000000000001,-0.017,-0.001,-0.07200000000000001
1701528659.102,19.609,19.609,-19.609,-0.0001,0.0034000000000000002,0.0039000000000000003,-0.02,0.002,-0.082
1701528659.142,19.609,19.609,-19.609,-0.0019,0.0012000000000000001,-0.010400000000000001,-0.014,0.012,-0.074
1701528659.182,19.609,19.609,-19.609,-0.00030000000000000003,0.0019,0.0029000000000000002,-0.012,-0.009000000000000001,-0.068
1701528659.222,19.609,19.609,-19.609,-0.0032,0.0021000000000000003,-0.0046,-0.026000000000000002,0.002,-0.085
1701528659.262,19.609,19.609,-19.609,-0.0008,0.0026000000000000003,0.023100000000000002,-0.02,-0.004,-0.085
1701528659.302,19.609,19.609,-19.609,-0.0007,0.004,-0.005,-0.012,-0.014,-0.07200000000000001
1701528659.342,19.609,19.609,-19.609,0.0021000000000000003,0.0053,-0.0119,-0.019,-0.011,-0.073
1701528659.382,19.609,19.609,-19.609,-0.0002,0.0025,0.0059,-0.007,-0.01,-0.075
1701528659.422,19.609,19.609,-19.609,0.0031000000000000003,0.0037,-0.0097,-0.016,-0.007,-0.085
1701528659.462,19.609,19.609,-19.609,0.0019,0.0031000000000000003,0.0,-0.013000000000000001,-0.008,-0.092
1701528659.502,19.609,19.609,-19.609,0.0,0.0016,-0.010100000000000001,-0.018000000000000002,-0.024,-0.076
1701528659.542,19.609,19.609,-19.609,-0.0006000000000000001,0.0022,-0.0022,-0.02,-0.023,-0.064
1701528659.582,19.609,19.609,-19.609,0.0001,0.0018000000000000002,0.01,-0.023,-0.026000000000000002,-0.062
1701528659.622,19.609,19.609,-19.609,0.0013000000000000002,0.0039000000000000003,-0.0057,-0.022,-0.008,-0.045
1701528659.662,19.609,19.609,-19.609,-0.0015,0.0029000000000000002,-0.0067,-0.026000000000000002,0.005,-0.041
1701528659.702,19.609,19.609,-19.609,-0.0004,0.0048000000000000004,-0.012,-0.046,-0.015,-0.036000000000000004
1701528659.742,19.609,19.609,-19.609,0.0007,0.0031000000000000003,-0.0187,-0.041,-0.012,-0.066
1701528659.782,19.609,19.609,-19.609,0.0014,0.0025,0.0143,-0.031,-0.004,-0.092
1701528659.822,19.609,19.609,-19.609,-0.0011,0.0025,0.0001,-0.01,-0.011,-0.092
1701528659.862,19.609,19.609,-19.609,0.0,0.0036000000000000003,-0.0184,-0.022,-0.007,-0.094
1701528659.902,19.609,19.609,-19.609,0.0007,0.003,0.031100000000000003,-0.011,-0.02,-0.10300000000000001
1701528659.942,19.609,19.609,-19.609,-0.00030000000000000003,0.0037,-0.0024000000000000002,-0.027,-0.022,-0.091
1701528659.982,19.609,19.609,-19.609,0.0007,0.0041,-0.0007,-0.025,-0.037,-0.085
1701528660.022,19.609,19.609,-19.609,0.0004,0.0031000000000000003,-0.0004,-0.023,-0.044,-0.082
1701528660.062,19.609,19.609,-19.609,-0.0028,0.0014,-0.0125,-0.007,-0.046,-0.078
1701528660.102,19.609,19.609,-19.609,0.0017000000000000001,0.0017000000000000001,0.005,-0.009000000000000001,-0.048,-0.088
1701528660.142,19.609,19.609,-19.609,0.0,0.0009000000000000001,-0.0029000000000000002,-0.007,-0.048,-0.092
1701528660.182,19.609,19.609,-19.609,0.0006000000000000001,0.0037,-0.0149,-0.003,-0.043000000000000003,-0.08600000000000001
1701528660.222,19.609,19.609,-19.609,0.0038,0.0015,0.0115,-0.004,-0.052000000000000005,-0.08700000000000001
1701528660.2619998,19.609,19.609,-19.609,0.0014,0.0029000000000000002,-0.0061,-0.006,-0.04,-0.093
1701528660.302,19.609,19.609,-19.609,0.00030000000000000003,0.0015,0.005200000000000001,-0.008,-0.035,-0.091
1701528660.342,19.609,19.609,-19.609,-0.00030000000000000003,0.0,-0.0017000000000000001,-0.011,-0.036000000000000004,-0.094
1701528660.382,19.609,19.609,-19.609,-0.00030000000000000003,-0.0006000000000000001,0.0021000000000000003,-0.009000000000000001,-0.02,-0.09
1701528660.422,19.609,19.609,-19.609,0.0,0.0021000000000000003,-0.0015,-0.025,-0.026000000000000002,-0.096
1701528660.462,19.609,19.609,-19.609,0.0002,0.0046,-0.0205,-0.011,-0.015,-0.08700000000000001
1701528660.5019999,19.609,19.609,-19.609,-0.0016,0.00030000000000000003,0.0111,-0.023,-0.024,-0.085
1701528660.542,19.609,19.609,-19.609,0.004,0.0037,-0.0224,-0.034,-0.017,-0.073
1701528660.582,19.609,19.609,-19.609,0.0009000000000000001,-0.0005,-0.0262,-0.042,-0.013000000000000001,-0.053
1701528660.622,19.609,19.609,-19.609,0.0007,0.004,-0.0008,-0.043000000000000003,-0.007,-0.031
1701528660.662,19.609,19.609,-19.609,0.002,0.0018000000000000002,-0.0222,-0.036000000000000004,-0.036000000000000004,-0.036000000000000004
1701528660.702,19.609,19.609,-19.609,0.0023,0.006200000000000001,0.037200000000000004,-0.036000000000000004,-0.012,-0.023
1701528660.7419999,19.609,19.609,-19.609,-0.0005,0.002,-0.0154,-0.03,-0.015,-0.029
1701528660.782,19.609,19.609,-19.609,0.0014,0.0026000000000000003,0.0112,-0.028,-0.023,-0.038
1701528660.822,19.609,19.609,-19.609,0.0018000000000000002,0.0025,-0.0001,-0.017,-0.02,-0.037
1701528660.862,19.609,19.609,-19.609,-0.0007,0.0023,-0.001,-0.029,-0.022,-0.034
1701528660.902,19.609,19.609,-19.609,-0.0001,0.004,-0.0053,-0.031,-0.026000000000000002,-0.031
1701528660.942,19.609,19.609,-19.609,0.0006000000000000001,0.001,-0.0117,-0.024,-0.019,-0.036000000000000004
1701528660.9819999,19.609,19.609,-19.609,-0.00030000000000000003,0.0017000000000000001,0.014400000000000001,-0.02,-0.024,-0.046
1701528661.022,19.609,19.609,-19.609,0.0013000000000000002,0.0012000000000000001,0.0028,-0.011,-0.031,-0.054
1701528661.062,19.609,19.609,-19.609,0.001,0.0025,-0.0025,-0.012,-0.026000000000000002,-0.088
1701528661.102,19.609,19.609,-19.609,-0.0014,0.0031000000000000003,-0.006500000000000001,0.003,-0.031,-0.091
1701528661.142,19.609,19.609,-19.609,0.0009000000000000001,0.002,0.0028,0.002,-0.021,-0.09
1701528661.182,19.609,19.609,-19.609,0.0004,0.0018000000000000002,-0.004200000000000001,-0.01,-0.019,-0.096
1701528661.222,19.609,19.609,-19.609,0.0014,0.0024000000000000002,-0.0017000000000000001,-0.007,-0.004,-0.101
1701528661.262,19.609,19.609,-19.609,0.0006000000000000001,0.0031000000000000003,-0.0078000000000000005,-0.009000000000000001,-0.006,-0.093
1701528661.302,19.609,19.609,-19.609,0.0032,0.0029000000000000002,-0.0053,-0.007,-0.017,-0.09
1701528661.342,19.609,19.609,-19.609,0.0005,0.00030000000000000003,-0.0008,-0.001,-0.014,-0.096
1701528661.382,19.609,19.609,-19.609,0.0009000000000000001,0.0018000000000000002,-0.0025,-0.005,-0.026000000000000002,-0.08600000000000001
1701528661.422,19.609,19.609,-19.609,-0.0002,0.0021000000000000003,-0.0006000000000000001,0.003,-0.029,-0.098
1701528661.462,19.609,19.609,-19.609,0.0,0.0025,0.0047,-0.012,-0.026000000000000002,-0.099
1701528661.502,19.609,19.609,-19.609,-0.0011,0.0031000000000000003,-0.0068000000000000005,0.01,-0.034,-0.098
1701528661.542,19.609,19.609,-19.609,0.0006000000000000001,0.0025,-0.0001,0.009000000000000001,-0.033,-0.1
1701528661.582,19.609,19.609,-19.609,0.0006000000000000001,0.0026000000000000003,0.0029000000000000002,0.004,-0.031,-0.10200000000000001
1701528661.622,19.609,19.609,-19.609,-0.0015,0.0024000000000000002,-0.0074,0.01,-0.036000000000000004,-0.11
1701528661.662,19.609,19.609,-19.609,0.0019,0.0031000000000000003,0.0005,0.004,-0.032,-0.106
1701528661.702,19.609,19.609,-19.609,0.0004,0.0032,0.0064,0.002,-0.021,-0.109
1701528661.742,19.609,19.609,-19.609,0.0015,0.0023,0.0032,-0.002,-0.034,-0.112
1701528661.782,19.609,19.609,-19.609,0.0005,0.0026000000000000003,0.0012000000000000001,0.007,-0.032,-0.111
1701528661.822,19.609,19.609,-19.609,0.0015,0.0038,-0.011000000000000001,0.001,-0.025,-0.108
1701528661.862,19.609,19.609,-19.609,-0.0007,0.0015,-0.0073,-0.006,-0.023,-0.117
1701528661.902,19.609,19.609,-19.609,-0.0005,-0.0001,-0.0261,-0.006,-0.017,-0.109
1701528661.942,19.609,19.609,-19.609,-0.0001,0.0014,0.029,-0.012,-0.024,-0.10400000000000001
1701528661.982,19.609,19.609,-19.609,0.0001,0.0025,0.0007,-0.012,-0.025,-0.10300000000000001
1701528662.022,19.609,19.609,-19.609,0.0017000000000000001,0.0053,-0.0046,-0.004,-0.023,-0.106
1701528662.062,19.609,19.609,-19.609,0.0012000000000000001,0.0028,-0.0057,-0.004,-0.029,-0.097
1701528662.102,19.609,19.609,-19.609,0.0007,0.002,-0.0031000000000000003,-0.01,-0.027,-0.097
1701528662.142,19.609,19.609,-19.609,-0.0018000000000000002,0.0029000000000000002,-0.0034000000000000002,-0.006,-0.028,-0.097
1701528662.182,19.609,19.609,-19.609,0.0014,0.0019,-0.0099,-0.006,-0.027,-0.097
1701528662.222,19.609,19.609,-19.609,-0.0017000000000000001,0.001,0.0066,-0.008,-0.036000000000000004,-0.1
1701528662.2619998,19.609,19.609,-19.609,0.00030000000000000003,0.0008,0.0026000000000000003,0.0,-0.043000000000000003,-0.101
1701528662.302,19.609,19.609,-19.609,-0.0001,0.0017000000000000001,0.0005,0.0,-0.045,-0.105
1701528662.342,19.609,19.609,-19.609,0.0006000000000000001,0.0051,-0.0194,-0.003,-0.046,-0.101
1701528662.382,19.609,19.609,-19.609,0.0014,0.001,-0.028900000000000002,0.004,-0.052000000000000005,-0.107
1701528662.422,19.609,19.609,-19.609,0.001,0.0031000000000000003,0.0352,0.004,-0.05,-0.113
1701528662.462,19.609,19.609,-19.609,-0.00030000000000000003,0.004200000000000001,0.0001,0.025,-0.05,-0.16
1701528662.5019999,19.609,19.609,-19.609,-0.0026000000000000003,0.0025,-0.0067,0.043000000000000003,-0.054,-0.149
1701528662.542,19.609,19.609,-19.609,0.0006000000000000001,0.0021000000000000003,-0.0097,0.028,-0.076,-0.154
1701528662.582,19.609,19.609,-19.609,0.0018000000000000002,0.0028,-0.0008,0.028,-0.079,-0.182
1701528662.622,19.609,19.609,-19.609,-0.0028,0.0036000000000000003,-0.0017000000000000001,0.015,-0.07200000000000001,-0.17300000000000001
1701528662.662,19.609,19.609,-19.609,0.0001,0.001,-0.0011,0.003,-0.079,-0.136
1701528662.702,19.609,19.609,-19.609,0.0016,0.0017000000000000001,0.0001,0.006,-0.084,-0.117
1701528662.7419999,19.609,19.609,-19.609,0.0016,0.0016,-0.0048000000000000004,0.0,-0.076,-0.092
1701528662.782,19.609,19.609,-19.609,0.0009000000000000001,0.003,0.0023,0.0,-0.065,-0.091
1701528662.822,19.609,19.609,-19.609,0.0005,0.0035,-0.0014,-0.009000000000000001,-0.059000000000000004,-0.097
1701528662.862,19.609,19.609,-19.609,0.0012000000000000001,0.0059,-0.0006000000000000001,-0.013000000000000001,-0.063,-0.099
1701528662.902,19.609,19.609,-19.609,0.001,0.0036000000000000003,-0.0094,-0.011,-0.076,-0.094
1701528662.942,19.609,19.609,-19.609,0.00030000000000000003,0.005,-0.0089,-0.014,-0.083,-0.1
1701528662.9819999,19.609,19.609,-19.609,0.0017000000000000001,0.0004,0.0017000000000000001,-0.014,-0.084,-0.10300000000000001
1701528663.022,19.609,19.609,-19.609,0.0,0.0039000000000000003,0.0035,-0.013000000000000001,-0.081,-0.094
1701528663.062,19.609,19.609,-19.609,0.0,0.0036000000000000003,-0.0026000000000000003,-0.033,-0.062,-0.089
1701528663.102,19.609,19.609,-19.609,0.0,0.0027,-0.0025,-0.007,-0.079,-0.093
1701528663.142,19.609,19.609,-19.609,-0.0012000000000000001,0.0032,-0.0041,0.0,-0.052000000000000005,-0.11
1701528663.182,19.609,19.609,-19.609,-0.0011,0.0011,-0.0092,0.004,-0.089,-0.113
1701528663.222,19.609,19.609,-19.609,0.0014,0.002,0.0095,0.037,-0.066,-0.10400000000000001
1701528663.262,19.609,19.609,-19.609,-0.0031000000000000003,0.0026000000000000003,0.0008,0.023,-0.078,-0.10200000000000001
1701528663.302,19.609,19.609,-19.609,0.0021000000000000003,0.0045000000000000005,-0.0022,0.011,-0.059000000000000004,-0.107
1701528663.342,19.609,19.609,-19.609,0.0014,0.0026000000000000003,-0.0006000000000000001,0.004,-0.032,-0.106
1701528663.382,19.609,19.609,-19.609,0.0019,0.0028,-0.006,0.009000000000000001,-0.032,-0.109
1701528663.422,19.609,19.609,-19.609,0.0051,0.0044,-0.0018000000000000002,-0.001,-0.031,-0.105
1701528663.462,19.609,19.609,-19.609,-0.0006000000000000001,0.0027,0.0024000000000000002,0.002,-0.027,-0.093
1701528663.502,19.609,19.609,-19.609,-0.0005,0.003,-0.0026000000000000003,0.0,-0.047,-0.095
1701528663.542,19.609,19.609,-19.609,0.0015,0.0043,0.0018000000000000002,-0.001,-0.036000000000000004,-0.09
1701528663.582,19.609,19.609,-19.609,-0.0008,0.0039000000000000003,-0.004200000000000001,0.001,-0.039,-0.09
1701528663.622,19.609,19.609,-19.609,-0.0022,0.0014,-0.0018000000000000002,0.002,-0.031,-0.089
1701528663.662,19.609,19.609,-19.609,-0.0014,0.0046,-0.0057,0.014,-0.024,-0.083
1701528663.702,19.609,19.609,-19.609,0.0001,0.0017000000000000001,-0.0151,0.001,-0.029,-0.08700000000000001
1701528663.742,19.609,19.609,-19.609,-0.0007,0.0059,0.0068000000000000005,0.0,-0.036000000000000004,-0.083
1701528663.782,19.609,19.609,-19.609,0.0001,0.0047,0.0009000000000000001,0.014,-0.048,-0.095
1701528663.822,19.609,19.609,-19.609,-0.0005,0.0014,-0.0002,0.018000000000000002,-0.054,-0.101
1701528663.862,19.609,19.609,-19.609,0.0009000000000000001,0.0027,-0.0021000000000000003,0.018000000000000002,-0.055,-0.096
1701528663.902,19.609,19.609,-19.609,-0.0006000000000000001,0.0015,-0.0019,0.017,-0.056,-0.099
1701528663.942,19.609,19.609,-19.609,0.00030000000000000003,0.002,-0.0194,0.026000000000000002,-0.041,-0.096
1701528663.982,19.609,19.609,-19.609,-0.0006000000000000001,0.0043,-0.056,0.02,-0.035,-0.10300000000000001
1701528664.022,19.609,19.609,-19.609,0.0014,0.001,0.041800000000000004,0.004,-0.037,-0.111
1701528664.062,19.609,19.609,-19.609,0.0009000000000000001,0.0048000000000000004,0.009000000000000001,-0.001,-0.033,-0.096
1701528664.102,19.609,19.609,-19.609,0.0005,0.0008,0.0089,-0.001,-0.033,-0.091
1701528664.142,19.609,19.609,-19.609,-0.0017000000000000001,0.004200000000000001,-0.0028,-0.007,-0.041,-0.092
1701528664.182,19.609,19.609,-19.609,0.0006000000000000001,0.0029000000000000002,-0.0034000000000000002,0.0,-0.04,-0.078
1701528664.222,19.609,19.609,-19.609,-0.0006000000000000001,0.0031000000000000003,-0.0067,0.0,-0.044,-0.07100000000000001
1701528664.2619998,19.609,19.609,-19.609,0.0,0.0017000000000000001,-0.0021000000000000003,-0.005,-0.045,-0.078
1701528664.302,19.609,19.609,-19.609,-0.0009000000000000001,0.005200000000000001,-0.007200000000000001,0.0,-0.054,-0.063
1701528664.342,19.609,19.609,-19.609,0.0,0.0018000000000000002,-0.0016,-0.003,-0.051000000000000004,-0.076
1701528664.382,19.609,19.609,-19.609,0.0028,0.0023,-0.004200000000000001,-0.004,-0.052000000000000005,-0.078
1701528664.422,19.609,19.609,-19.609,-0.001,0.0013000000000000002,0.0057,0.003,-0.049,-0.085
1701528664.462,19.609,19.609,-19.609,0.0016,0.004,-0.0122,0.001,-0.045,-0.085
1701528664.5019999,19.609,19.609,-19.609,0.0,0.0014,0.0026000000000000003,0.011,-0.05,-0.09
1701528664.542,19.609,19.609,-19.609,-0.0017000000000000001,0.002,-0.0001,0.0,-0.055,-0.089
1701528664.582,19.609,19.609,-19.609,-0.0012000000000000001,0.0031000000000000003,-0.0057,0.0,-0.044,-0.094
1701528664.622,19.609,19.609,-19.609,0.0015,0.0023,-0.0227,-0.006,-0.065,-0.094
1701528664.662,19.609,19.609,-19.609,-0.0004,0.002,0.021400000000000002,0.0,-0.034,-0.089
1701528664.702,19.609,19.609,-19.609,0.0018000000000000002,0.0054,0.0053,0.002,-0.062,-0.088
1701528664.7419999,19.609,19.609,-19.609,0.0011,0.0009000000000000001,0.0016,-0.019,-0.046,-0.096
1701528664.782,19.609,19.609,-19.609,0.0001,0.0028,0.0032,-0.01,-0.041,-0.098
1701528664.822,19.609,19.609,-19.609,0.0009000000000000001,0.0031000000000000003,-0.0046,-0.012,-0.035,-0.09
1701528664.862,19.609,19.609,-19.609,0.00030000000000000003,0.004,0.0016,-0.024,-0.038,-0.089
1701528664.902,19.609,19.609,-19.609,0.0008,0.0021000000000000003,-0.0054,-0.018000000000000002,-0.034,-0.092
1701528664.942,19.609,19.609,-19.609,0.0014,0.0027,-0.0049,-0.011,-0.04,-0.083
1701528664.9819999,19.609,19.609,-19.609,0.0,0.0045000000000000005,0.0059,-0.02,-0.05,-0.08600000000000001
1701528665.022,19.609,19.609,-19.609,0.0014,0.0034000000000000002,-0.0028,-0.02,-0.04,-0.083
1701528665.062,19.609,19.609,-19.609,-0.002,0.0029000000000000002,-0.0004,-0.015,-0.035,-0.082
1701528665.102,19.609,19.609,-19.609,-0.0006000000000000001,0.0029000000000000002,-0.0025,-0.016,-0.032,-0.088
1701528665.142,19.609,19.609,-19.609,0.0001,0.0024000000000000002,-0.015700000000000002,-0.016,-0.03,-0.089
1701528665.182,19.609,19.609,-19.609,0.0006000000000000001,0.0014,0.0045000000000000005,-0.019,-0.029,-0.094
1701528665.222,19.609,19.609,-19.609,0.0,0.0001,-0.001,-0.038,-0.026000000000000002,-0.099
1701528665.262,19.609,19.609,-19.609,0.0018000000000000002,0.0036000000000000003,-0.015700000000000002,-0.017,-0.017,-0.101
1701528665.302,19.609,19.609,-19.609,-0.0001,0.0038,-0.0125,-0.011,-0.014,-0.106
1701528665.342,19.609,19.609,-19.609,0.0,0.0027,0.0238,-0.007,-0.009000000000000001,-0.108
1701528665.382,19.609,19.609,-19.609,0.0004,0.0037,-0.0031000000000000003,0.002,-0.003,-0.106
1701528665.422,19.609,19.609,-19.609,0.001,0.0031000000000000003,-0.005200000000000001,0.014,-0.01,-0.092
1701528665.462,19.609,19.609,-19.609,-0.0006000000000000001,0.0025,-0.0046,0.002,-0.007,-0.092
1701528665.502,19.609,19.609,-19.609,-0.0001,0.0014,0.0053,0.004,-0.014,-0.094
1701528665.542,19.609,19.609,-19.609,-0.0013000000000000002,0.0032,-0.0005,0.006,-0.023,-0.101
1701528665.582,19.609,19.609,-19.609,-0.0001,0.0036000000000000003,-0.0045000000000000005,0.004,-0.028,-0.08600000000000001
1701528665.622,19.609,19.609,-19.609,-0.0014,0.0009000000000000001,-0.0019,-0.001,-0.043000000000000003,-0.084
1701528665.662,19.609,19.609,-19.609,0.0009000000000000001,0.0045000000000000005,-0.023,0.006,-0.043000000000000003,-0.088
1701528665.702,19.609,19.609,-19.609,-0.001,0.0034000000000000002,0.031900000000000005,-0.001,-0.057,-0.08600000000000001
1701528665.742,19.609,19.609,-19.609,0.001,0.0037,-0.0262,-0.001,-0.051000000000000004,-0.089
1701528665.782,19.609,19.609,-19.609,-0.0039000000000000003,0.004200000000000001,0.023,0.0,-0.047,-0.08600000000000001
1701528665.822,19.609,19.609,-19.609,0.0006000000000000001,0.0032,0.0021000000000000003,-0.004,-0.037,-0.1
1701528665.862,19.609,19.609,-19.609,0.0,0.0039000000000000003,0.0061,-0.012,-0.026000000000000002,-0.109
1701528665.902,19.609,19.609,-19.609,0.0021000000000000003,0.0024000000000000002,0.0014,-0.019,-0.019,-0.099
1701528665.942,19.609,19.609,-19.609,-0.0007,0.0044,-0.0012000000000000001,-0.011,-0.027,-0.10200000000000001
1701528665.982,19.609,19.609,-19.609,0.0013000000000000002,0.0,-0.0032,-0.007,-0.031,-0.109
1701528666.022,19.609,19.609,-19.609,0.0012000000000000001,0.0013000000000000002,0.0004,-0.004,-0.036000000000000004,-0.099
1701528666.062,19.609,19.609,-19.609,0.0,0.0049,0.002,-0.003,-0.031,-0.10400000000000001
1701528666.102,19.609,19.609,-19.609,-0.0012000000000000001,0.0028,-0.0166,-0.009000000000000001,-0.029,-0.091
1701528666.142,19.609,19.609,-19.609,0.00030000000000000003,0.0036000000000000003,0.0236,0.017,-0.024,-0.089
1701528666.182,19.609,19.609,-19.609,0.0021000000000000003,0.0045000000000000005,-0.0085,0.011,-0.032,-0.093
1701528666.222,19.609,19.609,-19.609,-0.0006000000000000001,0.004,-0.003,-0.001,-0.024,-0.107
1701528666.2619998,19.609,19.609,-19.609,-0.0007,0.0021000000000000003,-0.0006000000000000001,0.0,-0.013000000000000001,-0.098
1701528666.302,19.609,19.609,-19.609,-0.002,0.0034000000000000002,0.0018000000000000002,0.0,-0.023,-0.097
1701528666.342,19.609,19.609,-19.609,0.0028,0.0043,-0.009300000000000001,-0.036000000000000004,-0.032,-0.099
1701528666.382,19.609,19.609,-19.609,0.0,0.004,-0.0086,0.009000000000000001,-0.03,-0.097
1701528666.422,19.609,19.609,-19.609,0.0004,0.0026000000000000003,0.0238,0.008,-0.046,-0.105
1701528666.462,19.609,19.609,-19.609,0.0001,0.0023,-0.0206,-0.001,-0.036000000000000004,-0.105
1701528666.5019999,19.609,19.609,-19.609,0.00030000000000000003,0.0014,0.0049,-0.003,-0.042,-0.091
1701528666.542,19.609,19.609,-19.609,0.0017000000000000001,0.0029000000000000002,-0.0032,-0.004,-0.035,-0.101
1701528666.582,19.609,19.609,-19.609,-0.0025,0.004,-0.0342,-0.011,-0.028,-0.11
1701528666.622,19.609,19.609,-19.609,0.0,0.0017000000000000001,0.0523,-0.005,-0.03,-0.097
1701528666.662,19.609,19.609,-19.609,-0.0019,0.0023,-0.0094,0.004,-0.032,-0.099
1701528666.702,19.609,19.609,-19.609,-0.0022,0.0012000000000000001,-0.0045000000000000005,-0.006,-0.036000000000000004,-0.10200000000000001
1701528666.7419999,19.609,19.609,-19.609,0.0036000000000000003,0.0035,0.0016,-0.005,-0.025,-0.1
1701528666.782,19.609,19.609,-19.609,-0.0002,0.0039000000000000003,-0.0102,-0.001,-0.015,-0.097
1701528666.822,19.609,19.609,-19.609,-0.0002,0.0045000000000000005,0.008,-0.005,-0.023,-0.10200000000000001
1701528666.862,19.609,19.609,-19.609,-0.0021000000000000003,0.0006000000000000001,-0.0038,0.003,-0.014,-0.094
1701528666.902,19.609,19.609,-19.609,0.0011,0.0049,0.0014,0.0,-0.02,-0.096
1701528666.942,19.609,19.609,-19.609,-0.0023,-0.0001,-0.0006000000000000001,-0.009000000000000001,-0.009000000000000001,-0.106
1701528666.9819999,19.609,19.609,-19.609,-0.0005,0.0026000000000000003,-0.0029000000000000002,-0.008,0.003,-0.106
1701528667.022,19.609,19.609,-19.609,0.0001,0.0014,-0.0111,-0.013000000000000001,-0.015,-0.10300000000000001
1701528667.062,19.609,19.609,-19.609,0.0,0.0024000000000000002,0.0029000000000000002,-0.022,-0.017,-0.106
1701528667.102,19.609,19.609,-19.609,0.0006000000000000001,0.0005,-0.0055000000000000005,-0.009000000000000001,-0.02,-0.095
1701528667.142,19.609,19.609,-19.609,0.0014,0.0023,-0.0066,-0.012,-0.033,-0.095
1701528667.182,19.609,19.609,-19.609,0.004,0.0031000000000000003,0.015600000000000001,-0.019,-0.034,-0.101
1701528667.222,19.609,19.609,-19.609,-0.0014,0.0045000000000000005,-0.0021000000000000003,-0.018000000000000002,-0.033,-0.096
1701528667.262,19.609,19.609,-19.609,0.0001,0.0032,-0.0098,-0.015,-0.03,-0.096
1701528667.302,19.609,19.609,-19.609,0.005200000000000001,0.004200000000000001,-0.0419,-0.023,-0.031,-0.098
1701528667.342,19.609,19.609,-19.609,0.0026000000000000003,0.0029000000000000002,0.0417,-0.014,-0.024,-0.108
1701528667.382,19.609,19.609,-19.609,-0.0004,0.0057,0.0006000000000000001,-0.018000000000000002,-0.034,-0.107
1701528667.422,19.609,19.609,-19.609,0.0024000000000000002,0.0023,-0.0032,-0.014,-0.049,-0.109
1701528667.462,19.609,19.609,-19.609,0.0018000000000000002,0.0012000000000000001,0.0015,-0.01,-0.052000000000000005,-0.114
1701528667.502,19.609,19.609,-19.609,0.0015,0.0011,0.0046,-0.001,-0.062,-0.112
1701528667.542,19.609,19.609,-19.609,0.0004,0.0041,-0.0018000000000000002,0.002,-0.075,-0.129
1701528667.582,19.609,19.609,-19.609,0.0002,0.0044,0.0006000000000000001,0.006,-0.074,-0.116
1701528667.622,19.609,19.609,-19.609,0.0001,0.0019,-0.0018000000000000002,0.017,-0.081,-0.115
1701528667.662,19.609,19.609,-19.609,0.00030000000000000003,0.0029000000000000002,-0.0058000000000000005,0.005,-0.059000000000000004,-0.122
1701528667.702,19.609,19.609,-19.609,0.0018000000000000002,0.0015,-0.0122,-0.004,-0.049,-0.132
1701528667.742,19.609,19.609,-19.609,-0.0007,0.0009000000000000001,-0.0122,-0.003,-0.032,-0.14200000000000002
1701528667.782,19.609,19.609,-19.609,0.0006000000000000001,0.0018000000000000002,0.018000000000000002,-0.013000000000000001,-0.036000000000000004,-0.14
1701528667.822,19.609,19.609,-19.609,0.0,0.0026000000000000003,-0.013600000000000001,-0.012,-0.049,-0.137
1701528667.862,19.609,19.609,-19.609,0.0008,0.004200000000000001,0.0135,-0.011,-0.055,-0.114
1701528667.902,19.609,19.609,-19.609,0.0,0.0031000000000000003,-0.0325,-0.009000000000000001,-0.06,-0.10300000000000001
1701528667.942,19.609,19.609,-19.609,0.0004,0.0012000000000000001,0.0318,-0.01,-0.056,-0.101
1701528667.982,19.609,19.609,-19.609,0.0021000000000000003,0.0053,-0.008,-0.01,-0.038,-0.091
1701528668.022,19.609,19.609,-19.609,0.00030000000000000003,0.0013000000000000002,-0.0022,-0.005,-0.042,-0.098
1701528668.062,19.609,19.609,-19.609,0.0001,0.0023,-0.0009000000000000001,0.003,-0.034,-0.098
1701528668.102,19.609,19.609,-19.609,0.0018000000000000002,0.004200000000000001,0.0051,-0.006,-0.027,-0.106
1701528668.142,19.609,19.609,-19.609,0.0012000000000000001,0.0011,-0.016900000000000002,0.002,-0.037,-0.098
1701528668.182,19.609,19.609,-19.609,-0.0028,0.004200000000000001,0.0089,-0.03,-0.03,-0.097
1701528668.222,19.609,19.609,-19.609,-0.0014,0.0026000000000000003,-0.0067,-0.001,-0.038,-0.108
1701528668.2619998,19.609,19.609,-19.609,-0.00030000000000000003,0.002,0.0081,0.004,-0.034,-0.11
1701528668.302,19.609,19.609,-19.609,0.00030000000000000003,0.0046,0.0001,0.004,-0.047,-0.105
1701528668.342,19.609,19.609,-19.609,-0.0001,0.0038,-0.013300000000000001,0.015,-0.017,-0.101
1701528668.382,19.609,19.609,-19.609,-0.0015,0.0025,-0.01,0.009000000000000001,-0.032,-0.10400000000000001
1701528668.422,19.609,19.609,-19.609,0.0012000000000000001,0.0006000000000000001,0.027100000000000003,0.001,-0.034,-0.114
1701528668.462,19.609,19.609,-19.609,0.0012000000000000001,0.0036000000000000003,-0.0264,-0.006,-0.04,-0.098
1701528668.5019999,19.609,19.609,-19.609,0.00030000000000000003,0.0015,0.017,-0.003,-0.043000000000000003,-0.093
1701528668.542,19.609,19.609,-19.609,-0.0028,0.0023,-0.0023,-0.001,-0.039,-0.107
1701528668.582,19.609,19.609,-19.609,0.0004,0.0045000000000000005,0.0004,0.011,-0.042,-0.10300000000000001
1701528668.622,19.609,19.609,-19.609,0.0009000000000000001,0.0028,-0.0061,0.011,-0.047,-0.099
1701528668.662,19.609,19.609,-19.609,0.0002,0.0026000000000000003,-0.0008,-0.005,-0.038,-0.10200000000000001
1701528668.702,19.609,19.609,-19.609,0.0,0.0021000000000000003,-0.0017000000000000001,0.008,-0.035,-0.10200000000000001
1701528668.7419999,19.609,19.609,-19.609,-0.00030000000000000003,0.0017000000000000001,-0.0002,0.0,-0.035,-0.095
1701528668.782,19.609,19.609,-19.609,0.0023,0.0045000000000000005,-0.0008,0.004,-0.036000000000000004,-0.101
1701528668.822,19.609,19.609,-19.609,0.0001,0.0015,0.0,0.014,-0.039,-0.098
1701528668.862,19.609,19.609,-19.609,-0.0021000000000000003,0.0029000000000000002,-0.0029000000000000002,0.014,-0.044,-0.10300000000000001
1701528668.902,19.609,19.609,-19.609,0.0004,0.0036000000000000003,-0.0014,0.013000000000000001,-0.044,-0.1
1701528668.942,19.609,19.609,-19.609,0.0002,0.0011,-0.0026000000000000003,0.011,-0.049,-0.10300000000000001
1701528668.9819999,19.609,19.609,-19.609,-0.0023,0.0026000000000000003,-0.0012000000000000001,0.01,-0.06,-0.098
1701528669.022,19.609,19.609,-19.609,-0.0004,0.0032,-0.0027,0.013000000000000001,-0.053,-0.095
1701528669.062,19.609,19.609,-19.609,0.0015,0.0021000000000000003,-0.0025,0.022,-0.057,-0.08700000000000001
1701528669.102,19.609,19.609,-19.609,-0.002,0.0033,-0.0008,0.017,-0.052000000000000005,-0.099
1701528669.142,19.609,19.609,-19.609,0.0009000000000000001,0.0027,0.0028,0.013000000000000001,-0.045,-0.10300000000000001
1701528669.182,19.609,19.609,-19.609,-0.0018000000000000002,0.0051,-0.0009000000000000001,0.009000000000000001,-0.04,-0.093
1701528669.222,19.609,19.609,-19.609,0.0001,0.0018000000000000002,0.0015,0.001,-0.05,-0.082
1701528669.262,19.609,19.609,-19.609,0.0012000000000000001,0.0023,0.0054,0.005,-0.055,-0.09
1701528669.302,19.609,19.609,-19.609,-0.0001,0.0043,-0.0014,0.012,-0.057,-0.08700000000000001
1701528669.342,19.609,19.609,-19.609,-0.0014,0.0029000000000000002,-0.0068000000000000005,0.0,-0.054,-0.093
1701528669.382,19.609,19.609,-19.609,0.0016,0.0004,-0.0178,0.003,-0.046,-0.091
1701528669.422,19.609,19.609,-19.609,-0.00030000000000000003,0.0027,0.0187,0.0,-0.04,-0.085
1701528669.462,19.609,19.609,-19.609,-0.0004,0.0028,-0.011300000000000001,0.002,-0.034,-0.088
1701528669.502,19.609,19.609,-19.609,0.0018000000000000002,0.0032,0.0031000000000000003,0.007,-0.042,-0.098
1701528669.542,19.609,19.609,-19.609,0.001,0.0021000000000000003,-0.012400000000000001,0.002,-0.047,-0.094
1701528669.582,19.609,19.609,-19.609,-0.0002,0.0026000000000000003,0.004200000000000001,0.007,-0.047,-0.094
1701528669.622,19.609,19.609,-19.609,0.0,0.0034000000000000002,-0.0068000000000000005,0.008,-0.042,-0.098
1701528669.662,19.609,19.609,-19.609,0.0006000000000000001,0.0007,0.0008,0.005,-0.047,-0.098
1701528669.702,19.609,19.609,-19.609,0.0039000000000000003,0.0016,0.0016,-0.01,-0.065,-0.10400000000000001
1701528669.742,19.609,19.609,-19.609,0.0023,0.0004,-0.0018000000000000002,0.015,-0.06,-0.10400000000000001
1701528669.782,19.609,19.609,-19.609,0.0012000000000000001,0.0015,-0.0029000000000000002,0.011,-0.069,-0.10400000000000001
1701528669.822,19.609,19.609,-19.609,0.0007,0.0038,-0.0046,0.003,-0.059000000000000004,-0.105
1701528669.862,19.609,19.609,-19.609,-0.0012000000000000001,0.0009000000000000001,0.0059,-0.008,-0.057,-0.106
1701528669.902,19.609,19.609,-19.609,0.0019,0.0006000000000000001,-0.0014,-0.01,-0.056,-0.10300000000000001
1701528669.942,19.609,19.609,-19.609,0.0018000000000000002,0.0025,-0.0031000000000000003,-0.003,-0.069,-0.099
1701528669.982,19.609,19.609,-19.609,0.0015,0.003,-0.008400000000000001,0.003,-0.07200000000000001,-0.111
1701528670.022,19.609,19.609,-19.609,-0.0001,0.005,0.0079,0.01,-0.067,-0.10300000000000001
1701528670.062,19.609,19.609,-19.609,0.002,0.0038,-0.002,-0.002,-0.056,-0.097
1701528670.102,19.609,19.609,-19.609,-0.0012000000000000001,0.0023,-0.0012000000000000001,-0.004,-0.066,-0.097
1701528670.142,19.609,19.609,-19.609,0.0029000000000000002,0.0037,-0.0015,-0.016,-0.077,-0.098
1701528670.182,19.609,19.609,-19.609,-0.0005,0.0028,-0.0029000000000000002,-0.018000000000000002,-0.074,-0.093
1701528670.222,19.609,19.609,-19.609,0.0027,0.0026000000000000003,-0.0005,-0.018000000000000002,-0.085,-0.095
1701528670.2619998,19.609,19.609,-19.609,0.0,0.0032,-0.0044,-0.018000000000000002,-0.089,-0.096
1701528670.302,19.609,19.609,-19.609,0.0019,0.0032,-0.0196,-0.07100000000000001,-0.122,-0.075
1701528670.342,19.609,19.609,-19.609,-0.0012000000000000001,0.0021000000000000003,0.0297,-0.059000000000000004,-0.114,-0.08600000000000001
1701528670.382,19.609,19.609,-19.609,-0.0007,0.0026000000000000003,-0.0007,-0.07200000000000001,-0.152,-0.08
1701528670.422,19.609,19.609,-19.609,-0.003,0.0031000000000000003,-0.0058000000000000005,-0.032,-0.121,-0.093
1701528670.462,19.609,19.609,-19.609,-0.001,0.0032,-0.0022,-0.015,-0.135,-0.089
1701528670.5019999,19.609,19.609,-19.609,-0.0002,0.0012000000000000001,-0.016300000000000002,-0.004,-0.10400000000000001,-0.094
1701528670.542,19.609,19.609,-19.609,0.0001,0.0029000000000000002,0.0325,-0.002,-0.053,-0.109
1701528670.582,19.609,19.609,-19.609,0.0007,0.0028,-0.009000000000000001,-0.004,-0.011,-0.10300000000000001
1701528670.622,19.609,19.609,-19.609,0.003,0.0027,-0.0021000000000000003,0.011,0.039,-0.105
1701528670.662,19.609,19.609,-19.609,-0.0009000000000000001,0.0045000000000000005,-0.0008,0.002,0.025,-0.107
1701528670.702,19.609,19.609,-19.609,0.0017000000000000001,0.0007,-0.0046,0.0,0.022,-0.098
1701528670.7419999,19.609,19.609,-19.609,-0.0007,0.0045000000000000005,0.0009000000000000001,-0.006,-0.018000000000000002,-0.091
1701528670.782,19.609,19.609,-19.609,0.0001,0.0021000000000000003,-0.004,-0.017,-0.009000000000000001,-0.08700000000000001
1701528670.822,19.609,19.609,-19.609,0.0015,0.0031000000000000003,-0.0033,0.002,0.036000000000000004,-0.10200000000000001
1701528670.862,19.609,19.609,-19.609,0.0023,0.0021000000000000003,-0.0054,-0.012,-0.003,-0.101
1701528670.902,19.609,19.609,-19.609,0.0007,0.0024000000000000002,-0.01,-0.009000000000000001,-0.003,-0.097
1701528670.942,19.609,19.609,-19.609,-0.0007,0.0036000000000000003,0.014,-0.01,-0.026000000000000002,-0.097
1701528670.9819999,19.609,19.609,-19.609,0.0017000000000000001,0.0028,-0.0032,-0.011,-0.029,-0.101
1701528671.022,19.609,19.609,-19.609,0.0025,0.0039000000000000003,-0.0088,0.003,-0.05,-0.105
1701528671.062,19.609,19.609,-19.609,0.0013000000000000002,0.0012000000000000001,-0.0045000000000000005,-0.021,-0.08700000000000001,-0.10400000000000001
1701528671.102,19.609,19.609,-19.609,-0.0012000000000000001,0.0023,-0.0007,-0.017,-0.09,-0.108
1701528671.142,19.609,19.609,-19.609,0.0014,0.001,-0.0012000000000000001,-0.01,-0.074,-0.12
1701528671.182,19.609,19.609,-19.609,0.00030000000000000003,0.005,-0.0014,0.02,-0.098,-0.111
1701528671.222,19.609,19.609,-19.609,0.0028,0.0029000000000000002,-0.0049,0.016,-0.075,-0.122
1701528671.262,19.609,19.609,-19.609,-0.0007,0.0025,-0.0026000000000000003,0.007,-0.057,-0.10400000000000001
1701528671.302,19.609,19.609,-19.609,0.0009000000000000001,0.0015,-0.0036000000000000003,0.0,0.02,-0.097
1701528671.342,19.609,19.609,-19.609,-0.0001,0.0032,0.0053,-0.023,0.065,-0.094
1701528671.382,19.609,19.609,-19.609,0.0015,0.0039000000000000003,-0.0063,-0.02,0.106,-0.109
1701528671.422,19.609,19.609,-19.609,-0.0015,0.0033,-0.0031000000000000003,-0.02,0.079,-0.1
1701528671.462,19.609,19.609,-19.609,0.0,0.0019,0.0074,-0.034,0.034,-0.08600000000000001
1701528671.502,19.609,19.609,-19.609,0.0004,0.0046,-0.0176,-0.028,-0.004,-0.08700000000000001
1701528671.542,19.609,19.609,-19.609,0.0014,0.0035,0.0218,-0.008,-0.047,-0.088
1701528671.582,19.609,19.609,-19.609,0.0014,0.0051,-0.0014,0.009000000000000001,-0.08600000000000001,-0.089
1701528671.622,19.609,19.609,-19.609,-0.0018000000000000002,0.002,-0.0158,-0.031,-0.11800000000000001,-0.084
1701528671.662,19.609,19.609,-19.609,-0.00030000000000000003,0.001,-0.0032,0.016,-0.111,-0.083
1701528671.702,19.609,19.609,-19.609,0.0012000000000000001,0.002,-0.005200000000000001,0.023,-0.10300000000000001,-0.091
1701528671.742,19.609,19.609,-19.609,0.0012000000000000001,0.0031000000000000003,-0.0055000000000000005,0.022,-0.061,-0.096
1701528671.782,19.609,19.609,-19.609,0.0007,0.0009000000000000001,-0.015700000000000002,0.004,-0.042,-0.1
1701528671.822,19.609,19.609,-19.609,-0.00030000000000000003,0.0023,-0.0247,-0.007,0.0,-0.10300000000000001
1701528671.862,19.609,19.609,-19.609,-0.0006000000000000001,0.0045000000000000005,0.051500000000000004,-0.001,0.026000000000000002,-0.091
1701528671.902,19.609,19.609,-19.609,0.0012000000000000001,0.0048000000000000004,-0.0061,-0.047,0.033,-0.1
1701528671.942,19.609,19.609,-19.609,0.0013000000000000002,0.004200000000000001,-0.0073,-0.002,0.035,-0.11
1701528671.982,19.609,19.609,-19.609,-0.0004,0.0026000000000000003,-0.0172,-0.005,0.019,-0.107
1701528672.022,19.609,19.609,-19.609,-0.0012000000000000001,0.0029000000000000002,0.0009000000000000001,-0.011,-0.003,-0.088
1701528672.062,19.609,19.609,-19.609,0.0016,0.0028,0.001,-0.023,-0.042,-0.096
1701528672.102,19.609,19.609,-19.609,0.0026000000000000003,-0.0005,-0.031,-0.012,-0.051000000000000004,-0.084
1701528672.142,19.609,19.609,-19.609,0.0017000000000000001,0.0024000000000000002,0.0023,-0.016,-0.057,-0.095
1701528672.182,19.609,19.609,-19.609,0.0,0.0018000000000000002,-0.0014,-0.006,-0.069,-0.09
1701528672.222,19.609,19.609,-19.609,0.00030000000000000003,0.0051,-0.0014,-0.023,-0.048,-0.084
1701528672.2619998,19.609,19.609,-19.609,0.0014,0.0034000000000000002,0.0006000000000000001,0.002,-0.011,-0.089
1701528672.302,19.609,19.609,-19.609,0.0,0.0036000000000000003,-0.002,0.004,0.007,-0.1
1701528672.342,19.609,19.609,-19.609,0.0005,0.0033,0.006500000000000001,0.009000000000000001,0.015,-0.10300000000000001
1701528672.382,19.609,19.609,-19.609,-0.0002,0.0036000000000000003,-0.0044,0.015,0.013000000000000001,-0.115
1701528672.422,19.609,19.609,-19.609,0.0005,0.0017000000000000001,0.007200000000000001,0.017,-0.004,-0.12
1701528672.462,19.609,19.609,-19.609,0.0,0.0037,-0.010100000000000001,0.016,-0.047,-0.11800000000000001
1701528672.5019999,19.609,19.609,-19.609,-0.0001,0.0034000000000000002,0.006200000000000001,0.013000000000000001,-0.07,-0.121
1701528672.542,19.609,19.609,-19.609,0.0006000000000000001,0.0034000000000000002,-0.003,0.025,-0.051000000000000004,-0.10300000000000001
1701528672.582,19.609,19.609,-19.609,0.0008,0.0017000000000000001,-0.005,0.01,-0.043000000000000003,-0.116
1701528672.622,19.609,19.609,-19.609,0.002,0.0016,-0.0145,0.007,-0.025,-0.11800000000000001
1701528672.662,19.609,19.609,-19.609,0.0002,0.0024000000000000002,0.0064,0.007,-0.017,-0.109
1701528672.702,19.609,19.609,-19.609,-0.002,0.0026000000000000003,0.0089,0.003,-0.015,-0.095
1701528672.7419999,19.609,19.609,-19.609,-0.0006000000000000001,0.0026000000000000003,-0.008700000000000001,-0.009000000000000001,-0.024,-0.08700000000000001
1701528672.782,19.609,19.609,-19.609,-0.0004,0.0046,-0.0067,0.005,-0.032,-0.081
1701528672.822,19.609,19.609,-19.609,0.0002,0.0022,-0.0011,-0.005,-0.027,-0.08600000000000001
1701528672.862,19.609,19.609,-19.609,0.0021000000000000003,0.0017000000000000001,0.0031000000000000003,-0.007,-0.033,-0.091
1701528672.902,19.609,19.609,-19.609,0.0006000000000000001,0.0037,-0.00030000000000000003,-0.002,-0.038,-0.091
1701528672.942,19.609,19.609,-19.609,-0.0002,0.0047,-0.0015,-0.001,-0.024,-0.085
1701528672.9819999,19.609,19.609,-19.609,0.0009000000000000001,0.0034000000000000002,-0.008400000000000001,-0.007,-0.028,-0.091
1701528673.022,19.609,19.609,-19.609,0.00030000000000000003,0.0005,-0.0143,-0.007,-0.026000000000000002,-0.09
1701528673.062,19.609,19.609,-19.609,-0.0008,0.0,0.0083,0.01,-0.014,-0.093
1701528673.102,19.609,19.609,-19.609,-0.0012000000000000001,0.0014,-0.0005,0.003,-0.038,-0.10300000000000001
1701528673.142,19.609,19.609,-19.609,0.0014,0.0039000000000000003,-0.0018000000000000002,0.006,-0.032,-0.11
1701528673.182,19.609,19.609,-19.609,0.0028,0.0047,0.0006000000000000001,0.005,-0.052000000000000005,-0.106
1701528673.222,19.609,19.609,-19.609,0.0,0.0029000000000000002,-0.0026000000000000003,0.012,-0.049,-0.107
1701528673.262,19.609,19.609,-19.609,0.0002,0.0016,-0.0025,0.0,-0.055,-0.105
1701528673.302,19.609,19.609,-19.609,0.00030000000000000003,0.0013000000000000002,-0.023100000000000002,0.0,-0.065,-0.111
1701528673.342,19.609,19.609,-19.609,0.0002,0.002,0.0361,0.04,-0.024,-0.11800000000000001
1701528673.382,19.609,19.609,-19.609,0.0012000000000000001,0.0038,-0.0253,0.007,-0.017,-0.1
1701528673.422,19.609,19.609,-19.609,0.0009000000000000001,0.0031000000000000003,0.0119,0.0,0.084,-0.093
1701528673.462,19.609,19.609,-19.609,0.0004,0.0036000000000000003,0.001,0.003,0.155,-0.081
1701528673.502,19.609,19.609,-19.609,0.001,0.0037,-0.0024000000000000002,0.019,0.167,-0.064
1701528673.542,19.609,19.609,-19.609,-0.0004,0.0026000000000000003,-0.0032,0.043000000000000003,0.089,-0.076
1701528673.582,19.609,19.609,-19.609,0.0004,0.0018000000000000002,-0.0005,0.057,0.10200000000000001,-0.055
1701528673.622,19.609,19.609,-19.609,0.0004,0.0018000000000000002,0.0006000000000000001,0.051000000000000004,-0.016,-0.05
1701528673.662,19.609,19.609,-19.609,0.0021000000000000003,0.0046,0.0023,0.021,-0.03,-0.07200000000000001
1701528673.702,19.609,19.609,-19.609,0.002,0.0028,-0.0043,0.045,-0.038,-0.067
1701528673.742,19.609,19.609,-19.609,0.001,0.0016,-0.0048000000000000004,0.044,-0.042,-0.07200000000000001
1701528673.782,19.609,19.609,-19.609,0.0001,0.0033,-0.0022,0.034,-0.007,-0.036000000000000004
1701528673.822,19.609,19.609,-19.609,0.0025,0.0021000000000000003,-0.006900000000000001,0.051000000000000004,0.0,-0.037
1701528673.862,19.609,19.609,-19.609,0.0017000000000000001,0.0018000000000000002,0.0018000000000000002,0.078,-0.014,-0.038
1701528673.902,19.609,19.609,-19.609,0.0035,0.0038,-0.0048000000000000004,0.058,-0.047,-0.067
1701528673.942,19.609,19.609,-19.609,-0.0006000000000000001,0.0031000000000000003,-0.0097,0.051000000000000004,-0.027,-0.11
1701528673.982,19.609,19.609,-19.609,0.0009000000000000001,0.0034000000000000002,0.0152,0.045,0.075,-0.132
1701528674.022,19.609,19.609,-19.609,0.0029000000000000002,0.0027,-0.0048000000000000004,-0.023,-0.001,-0.122
1701528674.062,19.609,19.609,-19.609,0.0012000000000000001,0.0044,-0.0019,-0.028,-0.032,-0.14100000000000001
1701528674.102,19.609,19.609,-19.609,0.0015,0.0035,-0.0048000000000000004,-0.027,-0.074,-0.16
1701528674.142,19.609,19.609,-19.609,0.0016,0.0014,-0.0047,-0.023,-0.123,-0.178
1701528674.182,19.609,19.609,-19.609,0.0017000000000000001,0.0028,-0.0032,-0.009000000000000001,-0.065,-0.161
1701528674.222,19.609,19.609,-19.609,-0.0009000000000000001,0.0036000000000000003,-0.0083,-0.003,-0.047,-0.153
1701528674.2619998,19.609,19.609,-19.609,0.0001,0.0031000000000000003,0.0123,0.0,-0.069,-0.126
1701528674.302,19.609,19.609,-19.609,-0.0029000000000000002,0.0037,-0.0034000000000000002,0.017,-0.037,-0.115
1701528674.342,19.609,19.609,-19.609,0.0,0.0021000000000000003,-0.0018000000000000002,0.018000000000000002,-0.019,-0.128
1701528674.382,19.609,19.609,-19.609,0.0017000000000000001,0.0005,-0.0044,0.054,0.031,-0.146
1701528674.422,19.609,19.609,-19.609,0.003,0.0014,-0.0056,0.049,-0.025,-0.16
1701528674.462,19.609,19.609,-19.609,0.0,0.0038,0.023200000000000002,0.042,-0.055,-0.154
1701528674.5019999,19.609,19.609,-19.609,0.0013000000000000002,0.0031000000000000003,-0.0285,0.023,-0.075,-0.122
1701528674.542,19.609,19.609,-19.609,0.0005,0.004,-0.0081,0.009000000000000001,-0.108,-0.105
1701528674.582,19.609,19.609,-19.609,-0.00030000000000000003,0.0037,0.0014,0.02,-0.068,-0.116
1701528674.622,19.609,19.609,-19.609,0.0,0.0037,0.0009000000000000001,0.015,-0.067,-0.11900000000000001
1701528674.662,19.609,19.609,-19.609,-0.0004,0.0023,0.0,0.033,-0.045,-0.115
1701528674.702,19.609,19.609,-19.609,-0.0006000000000000001,0.0038,-0.0017000000000000001,0.054,0.0,-0.108
1701528674.7419999,19.609,19.609,-19.609,-0.0007,0.0036000000000000003,-0.0183,0.023,-0.031,-0.098
1701528674.782,19.609,19.609,-19.609,-0.001,0.0016,0.017400000000000002,0.014,-0.03,-0.081
1701528674.822,19.609,19.609,-19.609,0.00030000000000000003,0.0032,-0.0026000000000000003,0.024,-0.052000000000000005,-0.106
1701528674.862,19.609,19.609,-19.609,0.0007,0.0018000000000000002,-0.0014,0.016,-0.056,-0.125
1701528674.902,19.609,19.609,-19.609,0.001,0.0046,0.0055000000000000005,0.012,-0.089,-0.124
1701528674.942,19.609,19.609,-19.609,-0.001,0.0033,-0.0018000000000000002,0.009000000000000001,-0.096,-0.131
1701528674.9819999,19.609,19.609,-19.609,0.0018000000000000002,0.0027,0.0044,0.003,-0.097,-0.152
1701528675.022,19.609,19.609,-19.609,-0.0012000000000000001,0.0016,-0.0014,0.011,-0.14300000000000002,-0.17500000000000002
1701528675.062,19.609,19.609,-19.609,0.0,0.0034000000000000002,0.0001,-0.015,-0.159,-0.156
1701528675.102,19.609,19.609,-19.609,0.0002,0.0013000000000000002,-0.0026000000000000003,0.005,-0.17200000000000001,-0.14200000000000002
1701528675.142,19.609,19.609,-19.609,0.00030000000000000003,0.0033,-0.0026000000000000003,0.005,-0.10200000000000001,-0.138
1701528675.182,19.609,19.609,-19.609,0.0036000000000000003,0.0028,-0.0047,0.026000000000000002,-0.042,-0.109
1701528675.222,19.609,19.609,-19.609,0.0004,0.0031000000000000003,-0.0006000000000000001,0.069,-0.07100000000000001,-0.107
1701528675.262,19.609,19.609,-19.609,-0.0013000000000000002,0.0018000000000000002,-0.0034000000000000002,0.02,-0.01,-0.112
1701528675.302,19.609,19.609,-19.609,-0.0011,0.0031000000000000003,-0.0001,0.019,-0.035,-0.147
1701528675.342,19.609,19.609,-19.609,-0.0009000000000000001,0.0041,-0.0165,0.016,-0.041,-0.132
1701528675.382,19.609,19.609,-19.609,-0.0004,0.0048000000000000004,0.0077,0.007,-0.1,-0.124
1701528675.422,19.609,19.609,-19.609,0.0014,0.0045000000000000005,-0.0057,0.02,-0.125,-0.11800000000000001
1701528675.462,19.609,19.609,-19.609,-0.0007,0.0051,0.0128,0.031,-0.111,-0.12
1701528675.502,19.609,19.609,-19.609,0.0006000000000000001,0.0033,0.0034000000000000002,0.044,-0.081,-0.12
1701528675.542,19.609,19.609,-19.609,0.0004,0.0017000000000000001,0.001,0.06,-0.07,-0.131
1701528675.582,19.609,19.609,-19.609,0.0009000000000000001,0.0036000000000000003,-0.0095,0.023,-0.065,-0.121
1701528675.622,19.609,19.609,-19.609,0.001,0.0046,0.0006000000000000001,0.0,-0.064,-0.11
1701528675.662,19.609,19.609,-19.609,-0.0007,0.0023,0.008400000000000001,-0.024,-0.059000000000000004,-0.092
1701528675.702,19.609,19.609,-19.609,0.0031000000000000003,0.0021000000000000003,0.0049,-0.02,-0.039,-0.10300000000000001
1701528675.742,19.609,19.609,-19.609,-0.00030000000000000003,0.0031000000000000003,-0.0028,-0.02,0.009000000000000001,-0.113
1701528675.782,19.609,19.609,-19.609,-0.0011,0.0032,0.0025,-0.024,0.033,-0.108
1701528675.822,19.609,19.609,-19.609,-0.002,0.0004,-0.0013000000000000002,-0.029,-0.004,-0.093
1701528675.862,19.609,19.609,-19.609,0.0013000000000000002,0.0037,0.0014,-0.033,-0.027,-0.081
1701528675.902,19.609,19.609,-19.609,0.0004,0.0025,0.0016,-0.044,-0.029,-0.081
1701528675.942,19.609,19.609,-19.609,0.0014,-0.0009000000000000001,-0.0092,-0.049,-0.062,-0.079
1701528675.982,19.609,19.609,-19.609,0.0007,0.0056,-0.007500000000000001,-0.034,-0.052000000000000005,-0.073
1701528676.022,19.609,19.609,-19.609,-0.0009000000000000001,0.0033,-0.0235,-0.028,-0.025,-0.066
1701528676.062,19.609,19.609,-19.609,-0.0017000000000000001,0.0056,0.027200000000000002,-0.051000000000000004,-0.004,-0.061
1701528676.102,19.609,19.609,-19.609,0.0009000000000000001,0.0036000000000000003,-0.006500000000000001,-0.055,-0.025,-0.09
1701528676.142,19.609,19.609,-19.609,-0.0015,0.0043,0.0026000000000000003,-0.045,0.021,-0.127
1701528676.182,19.609,19.609,-19.609,0.0017000000000000001,0.0017000000000000001,-0.013900000000000001,-0.041,0.056,-0.124
1701528676.222,19.609,19.609,-19.609,0.0018000000000000002,0.0035,0.0211,-0.026000000000000002,0.047,-0.085
1701528676.2619998,19.609,19.609,-19.609,0.0018000000000000002,0.0032,0.0001,-0.018000000000000002,0.037,-0.082
1701528676.302,19.609,19.609,-19.609,-0.0023,0.0027,-0.013900000000000001,-0.017,0.012,-0.10300000000000001
1701528676.342,19.609,19.609,-19.609,-0.0009000000000000001,0.0028,0.0076,-0.016,-0.028,-0.105
1701528676.382,19.609,19.609,-19.609,-0.0009000000000000001,0.0028,-0.016300000000000002,-0.002,-0.046,-0.082
1701528676.422,19.609,19.609,-19.609,0.0005,0.0025,0.0063,0.004,-0.085,-0.099
1701528676.462,19.609,19.609,-19.609,0.0004,0.0036000000000000003,0.0048000000000000004,0.012,-0.096,-0.08700000000000001
1701528676.5019999,19.609,19.609,-19.609,-0.0009000000000000001,0.0009000000000000001,0.002,0.028,-0.105,-0.069
1701528676.542,19.609,19.609,-19.609,0.0001,0.0022,0.0025,0.03,-0.092,-0.057
1701528676.582,19.609,19.609,-19.609,0.00030000000000000003,0.0045000000000000005,-0.029900000000000003,0.015,-0.063,-0.058
1701528676.622,19.609,19.609,-19.609,-0.0007,0.0048000000000000004,0.0128,-0.004,-0.014,-0.078
1701528676.662,19.609,19.609,-19.609,0.00030000000000000003,0.0029000000000000002,0.0045000000000000005,-0.006,0.055,-0.08700000000000001
1701528676.702,19.609,19.609,-19.609,0.0023,0.004200000000000001,-0.0001,-0.02,0.025,-0.096
1701528676.7419999,19.609,19.609,-19.609,-0.0001,0.0031000000000000003,-0.006200000000000001,-0.014,0.004,-0.1
1701528676.782,19.609,19.609,-19.609,0.0011,0.0034000000000000002,0.0025,-0.013000000000000001,-0.037,-0.08700000000000001
1701528676.822,19.609,19.609,-19.609,0.0024000000000000002,0.0034000000000000002,0.0082,-0.016,-0.081,-0.101
1701528676.862,19.609,19.609,-19.609,0.0013000000000000002,0.002,-0.0045000000000000005,-0.011,-0.066,-0.097
1701528676.902,19.609,19.609,-19.609,0.001,0.0025,-0.0007,-0.001,-0.07100000000000001,-0.099
1701528676.942,19.609,19.609,-19.609,0.0015,0.0037,-0.037000000000000005,-0.008,-0.032,-0.094
1701528676.9819999,19.609,19.609,-19.609,-0.0006000000000000001,0.0033,0.029500000000000002,-0.001,-0.023,-0.10300000000000001
1701528677.022,19.609,19.609,-19.609,-0.0009000000000000001,0.0036000000000000003,-0.0102,-0.001,-0.04,-0.10200000000000001
1701528677.062,19.609,19.609,-19.609,0.0001,0.0033,0.003,-0.023,-0.036000000000000004,-0.099
1701528677.102,19.609,19.609,-19.609,0.0029000000000000002,0.0021000000000000003,0.007200000000000001,0.018000000000000002,-0.037,-0.10300000000000001
1701528677.142,19.609,19.609,-19.609,0.0004,0.0032,-0.007,0.008,-0.042,-0.107
1701528677.182,19.609,19.609,-19.609,0.0007,0.0025,0.010400000000000001,0.002,-0.041,-0.10400000000000001
1701528677.222,19.609,19.609,-19.609,-0.0007,0.0046,-0.004200000000000001,0.022,-0.037,-0.10400000000000001
1701528677.262,19.609,19.609,-19.609,-0.0015,0.0025,-0.0187,0.015,-0.035,-0.10400000000000001
1701528677.302,19.609,19.609,-19.609,0.0029000000000000002,0.0033,0.0221,0.005,-0.032,-0.11800000000000001
1701528677.342,19.609,19.609,-19.609,-0.0009000000000000001,0.0028,-0.010700000000000001,0.001,-0.037,-0.099
1701528677.382,19.609,19.609,-19.609,0.0032,0.0017000000000000001,0.0032,0.002,-0.037,-0.093
1701528677.422,19.609,19.609,-19.609,0.0007,0.0029000000000000002,-0.0017000000000000001,-0.001,-0.04,-0.10200000000000001
1701528677.462,19.609,19.609,-19.609,0.0016,0.004,-0.010100000000000001,0.003,-0.047,-0.088
1701528677.502,19.609,19.609,-19.609,-0.0008,0.0035,0.0106,0.0,-0.054,-0.089
1701528677.542,19.609,19.609,-19.609,0.0009000000000000001,0.0019,-0.006500000000000001,0.004,-0.034,-0.092
1701528677.582,19.609,19.609,-19.609,-0.0015,0.0027,0.0053,0.003,-0.038,-0.088
1701528677.622,19.609,19.609,-19.609,0.0014,0.0029000000000000002,-0.002,-0.012,-0.02,-0.083
1701528677.662,19.609,19.609,-19.609,0.0,0.0037,-0.0001,-0.016,-0.02,-0.091
1701528677.702,19.609,19.609,-19.609,0.0005,0.0045000000000000005,-0.0029000000000000002,-0.029,-0.012,-0.091
1701528677.742,19.609,19.609,-19.609,0.0,0.0025,-0.0059,-0.01,-0.025,-0.096
1701528677.782,19.609,19.609,-19.609,-0.0007,0.0028,-0.003,-0.017,-0.04,-0.08600000000000001
1701528677.822,19.609,19.609,-19.609,0.0007,0.0039000000000000003,-0.0204,-0.012,-0.041,-0.084
1701528677.862,19.609,19.609,-19.609,0.0015,0.0034000000000000002,0.0178,-0.011,-0.065,-0.09
1701528677.902,19.609,19.609,-19.609,0.0001,0.0028,-0.0166,0.0,-0.06,-0.08
1701528677.942,19.609,19.609,-19.609,-0.0012000000000000001,0.004200000000000001,0.0071,0.006,-0.051000000000000004,-0.095
1701528677.982,19.609,19.609,-19.609,0.001,0.0029000000000000002,0.027100000000000003,-0.005,-0.06,-0.096
1701528678.022,19.609,19.609,-19.609,0.0011,0.0046,0.0038,-0.009000000000000001,-0.05,-0.066
1701528678.062,19.609,19.609,-19.609,-0.0015,0.0028,0.0078000000000000005,-0.015,-0.048,-0.061
1701528678.102,19.609,19.609,-19.609,0.0,0.0024000000000000002,0.0021000000000000003,-0.008,-0.016,-0.074
1701528678.142,19.609,19.609,-19.609,0.0077,0.002,0.0002,0.0,-0.024,-0.09
1701528678.182,19.609,19.609,-19.609,-0.0018000000000000002,0.0039000000000000003,-0.0165,-0.007,-0.039,-0.08
1701528678.222,19.609,19.609,-19.609,-0.001,0.0023,0.0151,-0.009000000000000001,-0.036000000000000004,-0.077
1701528678.2619998,19.609,19.609,-19.609,0.0004,0.0027,-0.007200000000000001,-0.009000000000000001,-0.042,-0.085
1701528678.302,19.609,19.609,-19.609,0.0009000000000000001,0.001,0.0089,0.001,-0.044,-0.091
1701528678.342,19.609,19.609,-19.609,0.0001,0.0049,-0.016,0.01,-0.069,-0.10200000000000001
1701528678.382,19.609,19.609,-19.609,0.0021000000000000003,0.0039000000000000003,0.0054,0.014,-0.07100000000000001,-0.1
1701528678.422,19.609,19.609,-19.609,-0.0001,0.0034000000000000002,0.0033,0.0,-0.069,-0.105
1701528678.462,19.609,19.609,-19.609,-0.0022,0.0032,-0.007500000000000001,-0.001,-0.041,-0.099
1701528678.5019999,19.609,19.609,-19.609,-0.0012000000000000001,0.0014,-0.0007,0.001,-0.04,-0.096
1701528678.542,19.609,19.609,-19.609,0.0007,0.0015,-0.0037,0.0,-0.039,-0.10300000000000001
1701528678.582,19.609,19.609,-19.609,0.0006000000000000001,0.0028,-0.0004,0.011,-0.034,-0.096
1701528678.622,19.609,19.609,-19.609,-0.0009000000000000001,0.0033,-0.0056,-0.027,-0.039,-0.09
1701528678.662,19.609,19.609,-19.609,0.0019,0.002,-0.0051,-0.007,-0.034,-0.101
1701528678.702,19.609,19.609,-19.609,0.0002,0.0017000000000000001,0.0012000000000000001,0.001,-0.037,-0.094
1701528678.7419999,19.609,19.609,-19.609,-0.0021000000000000003,0.0028,0.0025,-0.01,-0.023,-0.091
1701528678.782,19.609,19.609,-19.609,-0.0045000000000000005,0.0017000000000000001,0.0025,-0.044,-0.036000000000000004,-0.083
1701528678.822,19.609,19.609,-19.609,0.0022,0.002,0.0026000000000000003,-0.02,-0.019,-0.085
1701528678.862,19.609,19.609,-19.609,0.0013000000000000002,0.0041,-0.0021000000000000003,-0.027,-0.043000000000000003,-0.081
1701528678.902,19.609,19.609,-19.609,-0.0014,0.0033,0.0068000000000000005,-0.011,-0.052000000000000005,-0.09
1701528678.942,19.609,19.609,-19.609,-0.0001,0.0029000000000000002,-0.0198,-0.007,-0.07100000000000001,-0.085
1701528678.9819999,19.609,19.609,-19.609,-0.0024000000000000002,0.0039000000000000003,0.0007,-0.009000000000000001,-0.07100000000000001,-0.089
1701528679.022,19.609,19.609,-19.609,-0.0001,0.00030000000000000003,0.0058000000000000005,-0.008,-0.055,-0.096
1701528679.062,19.609,19.609,-19.609,-0.00030000000000000003,0.0012000000000000001,-0.0099,-0.006,-0.034,-0.106
1701528679.102,19.609,19.609,-19.609,0.0006000000000000001,0.0032,-0.0044,-0.006,-0.01,-0.098
1701528679.142,19.609,19.609,-19.609,-0.0006000000000000001,0.0034000000000000002,-0.00030000000000000003,-0.001,-0.008,-0.10400000000000001
1701528679.182,19.609,19.609,-19.609,0.0,0.0028,0.0057,0.001,-0.016,-0.11
1701528679.222,19.609,19.609,-19.609,0.0025,0.0033,-0.0005,0.001,-0.021,-0.117
1701528679.262,19.609,19.609,-19.609,0.001,0.003,0.0049,0.007,-0.045,-0.107
1701528679.302,19.609,19.609,-19.609,0.002,0.0017000000000000001,-0.0143,0.016,-0.054,-0.098
1701528679.342,19.609,19.609,-19.609,0.0025,0.0016,0.0109,0.006,-0.047,-0.114
1701528679.382,19.609,19.609,-19.609,-0.0015,0.0027,-0.0048000000000000004,0.002,-0.032,-0.111
1701528679.422,19.609,19.609,-19.609,0.0007,0.0021000000000000003,-0.0057,0.001,-0.016,-0.105
1701528679.462,19.609,19.609,-19.609,0.0023,0.0034000000000000002,0.0034000000000000002,-0.005,-0.019,-0.098
1701528679.502,19.609,19.609,-19.609,-0.0018000000000000002,0.0037,-0.0032,-0.003,0.0,-0.098
1701528679.542,19.609,19.609,-19.609,0.0,0.0017000000000000001,0.0014,-0.013000000000000001,-0.024,-0.109
1701528679.582,19.609,19.609,-19.609,0.0009000000000000001,0.0045000000000000005,-0.012400000000000001,-0.015,-0.029,-0.105
1701528679.622,19.609,19.609,-19.609,-0.0013000000000000002,0.002,0.0017000000000000001,-0.015,-0.031,-0.092
1701528679.662,19.609,19.609,-19.609,-0.0004,0.0029000000000000002,0.0009000000000000001,-0.007,-0.034,-0.101
1701528679.702,19.609,19.609,-19.609,0.0007,0.0029000000000000002,-0.0086,-0.008,-0.037,-0.113
1701528679.742,19.609,19.609,-19.609,0.0,0.0038,-0.0241,-0.002,-0.035,-0.10300000000000001
1701528679.782,19.609,19.609,-19.609,-0.0013000000000000002,0.001,-0.0012000000000000001,-0.004,-0.045,-0.095
1701528679.822,19.609,19.609,-19.609,-0.001,0.0039000000000000003,0.0085,-0.005,-0.031,-0.095
1701528679.862,19.609,19.609,-19.609,0.0013000000000000002,0.002,-0.002,0.003,-0.047,-0.106
1701528679.902,19.609,19.609,-19.609,0.0015,0.001,-0.0056,0.0,-0.049,-0.093
1701528679.942,19.609,19.609,-19.609,-0.0009000000000000001,0.0034000000000000002,0.002,0.02,-0.051000000000000004,-0.09
1701528679.982,19.609,19.609,-19.609,0.0018000000000000002,0.0038,-0.0184,0.012,-0.046,-0.093
1701528680.022,19.609,19.609,-19.609,0.0004,0.0017000000000000001,-0.0033,0.008,-0.032,-0.10300000000000001
1701528680.062,19.609,19.609,-19.609,-0.0009000000000000001,0.0026000000000000003,-0.0039000000000000003,0.003,-0.034,-0.093
1701528680.102,19.609,19.609,-19.609,0.0001,0.003,0.0109,0.0,-0.012,-0.085
1701528680.142,19.609,19.609,-19.609,-0.0004,0.0026000000000000003,0.0019,0.001,-0.04,-0.084
1701528680.182,19.609,19.609,-19.609,0.0001,0.0022,-0.0026000000000000003,0.0,-0.053,-0.077
1701528680.222,19.609,19.609,-19.609,0.0,0.0002,-0.0031000000000000003,0.002,-0.053,-0.08
1701528680.2619998,19.609,19.609,-19.609,0.0026000000000000003,0.0023,-0.0051,-0.003,-0.057,-0.082
1701528680.302,19.609,19.609,-19.609,0.0012000000000000001,0.0017000000000000001,-0.00030000000000000003,-0.004,-0.041,-0.084
1701528680.342,19.609,19.609,-19.609,-0.0008,0.0021000000000000003,-0.0012000000000000001,-0.001,-0.074,-0.096
1701528680.382,19.609,19.609,-19.609,-0.0004,0.001,-0.0048000000000000004,-0.004,-0.031,-0.095
1701528680.422,19.609,19.609,-19.609,0.0018000000000000002,0.0017000000000000001,0.0046,0.0,-0.027,-0.089
1701528680.462,19.609,19.609,-19.609,0.0007,0.003,-0.0048000000000000004,-0.009000000000000001,-0.025,-0.084
1701528680.5019999,19.609,19.609,-19.609,0.0008,0.0012000000000000001,-0.0049,0.028,-0.021,-0.099
1701528680.542,19.609,19.609,-19.609,-0.00030000000000000003,0.0004,-0.006900000000000001,-0.002,-0.026000000000000002,-0.088
1701528680.582,19.609,19.609,-19.609,-0.0026000000000000003,0.0011,-0.006900000000000001,0.0,-0.034,-0.088
1701528680.622,19.609,19.609,-19.609,0.0004,0.0025,0.0026000000000000003,0.01,-0.021,-0.08600000000000001
1701528680.662,19.609,19.609,-19.609,0.0012000000000000001,0.0028,-0.0097,0.0,-0.025,-0.09
1701528680.702,19.609,19.609,-19.609,0.0007,0.0036000000000000003,-0.0129,-0.008,-0.014,-0.084
1701528680.7419999,19.609,19.609,-19.609,0.0015,0.0029000000000000002,0.0244,-0.007,-0.026000000000000002,-0.076
1701528680.782,19.609,19.609,-19.609,0.0016,0.0014,-0.0081,-0.01,-0.02,-0.077
1701528680.822,19.609,19.609,-19.609,-0.0011,0.0,-0.0018000000000000002,-0.009000000000000001,-0.036000000000000004,-0.08
1701528680.862,19.609,19.609,-19.609,0.0015,0.0022,0.0021000000000000003,-0.008,-0.05,-0.074
1701528680.902,19.609,19.609,-19.609,-0.0011,0.0034000000000000002,-0.0086,-0.005,-0.054,-0.083
1701528680.942,19.609,19.609,-19.609,-0.0009000000000000001,0.0019,0.0033,-0.005,-0.055,-0.088
1701528680.9819999,19.609,19.609,-19.609,-0.0001,0.0056,-0.0026000000000000003,-0.017,-0.043000000000000003,-0.082
1701528681.022,19.609,19.609,-19.609,0.0006000000000000001,0.001,0.0022,-0.018000000000000002,-0.033,-0.091
1701528681.062,19.609,19.609,-19.609,0.001,0.0007,-0.0004,-0.013000000000000001,-0.037,-0.095
1701528681.102,19.609,19.609,-19.609,0.0021000000000000003,0.005200000000000001,-0.0016,-0.017,-0.045,-0.105
1701528681.142,19.609,19.609,-19.609,-0.0015,0.0017000000000000001,-0.0106,-0.021,-0.04,-0.105
1701528681.182,19.609,19.609,-19.609,0.0025,0.0026000000000000003,0.0034000000000000002,-0.025,-0.045,-0.098
1701528681.222,19.609,19.609,-19.609,-0.0005,0.0014,-0.0073,-0.021,-0.041,-0.091
1701528681.262,19.609,19.609,-19.609,0.001,0.0025,0.013600000000000001,-0.016,-0.035,-0.094
1701528681.302,19.609,19.609,-19.609,-0.0014,0.0001,-0.008700000000000001,-0.01,-0.031,-0.09
1701528681.342,19.609,19.609,-19.609,0.0012000000000000001,0.0039000000000000003,-0.015000000000000001,-0.009000000000000001,-0.033,-0.08600000000000001
1701528681.382,19.609,19.609,-19.609,0.0021000000000000003,0.0028,0.0014,-0.011,-0.044,-0.09
1701528681.422,19.609,19.609,-19.609,0.0,0.0029000000000000002,-0.0012000000000000001,-0.006,-0.031,-0.094
1701528681.462,19.609,19.609,-19.609,0.0005,0.0064,-0.004,-0.004,-0.038,-0.091
1701528681.502,19.609,19.609,-19.609,0.0017000000000000001,0.0014,0.0162,-0.005,-0.036000000000000004,-0.094
1701528681.542,19.609,19.609,-19.609,0.00030000000000000003,0.0036000000000000003,0.0309,-0.013000000000000001,-0.035,-0.079
1701528681.582,19.609,19.609,-19.609,0.0007,0.004,-0.0004,-0.014,-0.036000000000000004,-0.085
1701528681.622,19.609,19.609,-19.609,0.0001,0.0035,-0.0037,-0.015,-0.025,-0.085
1701528681.662,19.609,19.609,-19.609,0.0002,0.0021000000000000003,-0.0025,-0.019,-0.015,-0.078
1701528681.702,19.609,19.609,-19.609,0.0004,0.0007,0.0046,-0.031,-0.016,-0.08
1701528681.742,19.609,19.609,-19.609,0.0004,0.0029000000000000002,-0.0073,-0.037,-0.046,-0.088
1701528681.782,19.609,19.609,-19.609,-0.0002,0.0039000000000000003,0.0039000000000000003,-0.076,-0.136,-0.058
1701528681.822,19.609,19.609,-19.609,-0.0006000000000000001,0.0039000000000000003,-0.0053,-0.038,-0.153,-0.08600000000000001
1701528681.862,19.609,19.609,-19.609,0.0036000000000000003,0.0038,-0.001,-0.028,-0.182,-0.081
1701528681.902,19.609,19.609,-19.609,0.004200000000000001,0.0033,0.0015,-0.021,-0.148,-0.085
1701528681.942,19.609,19.609,-19.609,0.0012000000000000001,0.002,0.0028,-0.01,-0.124,-0.093
1701528681.982,19.609,19.609,-19.609,-0.00030000000000000003,0.0034000000000000002,-0.0015,0.018000000000000002,-0.04,-0.105
1701528682.022,19.609,19.609,-19.609,0.0009000000000000001,0.0018000000000000002,-0.007500000000000001,0.005,0.03,-0.096
1701528682.062,19.609,19.609,-19.609,-0.001,0.0032,0.0007,-0.003,0.085,-0.11900000000000001
1701528682.102,19.609,19.609,-19.609,0.0015,0.0017000000000000001,-0.0262,-0.011,0.084,-0.117
1701528682.142,19.609,19.609,-19.609,0.0011,0.0048000000000000004,0.008700000000000001,-0.036000000000000004,0.07100000000000001,-0.095
1701528682.182,19.609,19.609,-19.609,0.0009000000000000001,0.0031000000000000003,0.0016,-0.05,0.001,-0.075
1701528682.222,19.609,19.609,-19.609,0.0012000000000000001,0.0048000000000000004,-0.026500000000000003,-0.045,-0.064,-0.08700000000000001
1701528682.2619998,19.609,19.609,-19.609,0.0,0.0015,0.013000000000000001,-0.039,-0.107,-0.076
1701528682.302,19.609,19.609,-19.609,0.00030000000000000003,0.0019,0.0023,-0.044,-0.187,-0.08
1701528682.342,19.609,19.609,-19.609,0.0009000000000000001,0.0053,0.0009000000000000001,-0.024,-0.211,-0.084
1701528682.382,19.609,19.609,-19.609,-0.00030000000000000003,0.0025,-0.0018000000000000002,-0.029,-0.19,-0.081
1701528682.422,19.609,19.609,-19.609,0.0017000000000000001,0.0027,-0.0016,-0.003,-0.08600000000000001,-0.082
1701528682.462,19.609,19.609,-19.609,-0.0006000000000000001,0.0026000000000000003,-0.002,-0.025,-0.017,-0.08600000000000001
1701528682.5019999,19.609,19.609,-19.609,0.0014,0.0041,-0.0056,-0.002,0.078,-0.113
1701528682.542,19.609,19.609,-19.609,0.0018000000000000002,0.0034000000000000002,-0.0103,0.015,0.114,-0.133
1701528682.582,19.609,19.609,-19.609,-0.0001,0.0028,-0.0021000000000000003,-0.004,0.053,-0.132
1701528682.622,19.609,19.609,-19.609,-0.0002,0.0028,0.0068000000000000005,0.006,-0.025,-0.12
1701528682.662,19.609,19.609,-19.609,-0.0024000000000000002,0.0032,0.006200000000000001,0.018000000000000002,-0.101,-0.117
1701528682.702,19.609,19.609,-19.609,-0.0006000000000000001,0.004200000000000001,-0.0045000000000000005,0.025,-0.127,-0.108
1701528682.7419999,19.609,19.609,-19.609,0.0007,0.0022,0.0073,0.014,-0.112,-0.108
1701528682.782,19.609,19.609,-19.609,-0.0009000000000000001,0.0031000000000000003,-0.0088,0.007,-0.07,-0.10200000000000001
1701528682.822,19.609,19.609,-19.609,0.0,0.0031000000000000003,-0.0037,0.003,0.021,-0.098
1701528682.862,19.609,19.609,-19.609,0.0017000000000000001,0.0032,0.0039000000000000003,-0.007,0.045,-0.08600000000000001
1701528682.902,19.609,19.609,-19.609,-0.0013000000000000002,0.0026000000000000003,0.0018000000000000002,-0.01,0.055,-0.088
1701528682.942,19.609,19.609,-19.609,0.0011,0.0002,-0.0048000000000000004,0.0,0.016,-0.091
1701528682.9819999,19.609,19.609,-19.609,0.0021000000000000003,0.0029000000000000002,0.0013000000000000002,-0.001,-0.025,-0.084
1701528683.022,19.609,19.609,-19.609,0.0019,0.0032,-0.0057,-0.001,-0.042,-0.088
1701528683.062,19.609,19.609,-19.609,-0.0032,0.0023,0.0007,0.0,-0.027,-0.08
1701528683.102,19.609,19.609,-19.609,0.0021000000000000003,0.0014,0.0017000000000000001,0.0,0.014,-0.089
1701528683.142,19.609,19.609,-19.609,0.0,0.0031000000000000003,0.0037,0.007,0.115,-0.085
1701528683.182,19.609,19.609,-19.609,0.0014,0.002,0.0078000000000000005,-0.007,0.199,-0.044
1701528683.222,19.609,19.609,-19.609,-0.0007,0.0025,-0.0039000000000000003,-0.052000000000000005,0.20400000000000001,0.064
1701528683.262,19.609,19.609,-19.609,0.00030000000000000003,0.0035,0.0004,-0.153,0.132,0.1
1701528683.302,19.609,19.609,-19.609,0.0007,0.0024000000000000002,0.0025,-0.23700000000000002,0.34500000000000003,0.28
1701528683.342,19.609,19.609,-19.609,0.0007,0.0017000000000000001,-0.0206,-0.439,0.622,0.353
1701528683.382,19.609,19.609,-19.609,0.0,0.0034000000000000002,0.023700000000000002,-0.518,0.604,0.16
1701528683.422,19.609,19.609,-19.609,-0.0007,-0.0004,-0.0027,-0.619,0.65,0.214
1701528683.462,19.609,19.609,-19.609,-0.0012000000000000001,-0.0001,-0.004200000000000001,-0.5760000000000001,0.534,0.18
1701528683.502,19.609,19.609,-19.609,0.0007,0.0027,-0.0033,-0.512,0.40700000000000003,0.089
1701528683.542,19.609,19.609,-19.609,-0.0016,0.004,-0.0034000000000000002,-0.447,0.318,0.014
1701528683.582,19.609,19.609,-19.609,0.0012000000000000001,0.004,0.0012000000000000001,-0.43,0.28600000000000003,-0.01
1701528683.622,19.609,19.609,-19.609,0.0001,0.0039000000000000003,-0.0032,-0.459,0.198,-0.002
1701528683.662,19.609,19.609,-19.609,0.0,0.0023,0.0011,-0.483,0.211,0.041
1701528683.702,19.609,19.609,-19.609,0.00030000000000000003,0.0027,-0.0017000000000000001,-0.41200000000000003,0.193,0.001
1701528683.742,19.609,19.609,-19.609,0.0001,0.0017000000000000001,-0.007500000000000001,-0.367,0.253,-0.037
1701528683.782,19.609,19.609,-19.609,0.0015,0.0054,-0.0054,-0.297,0.246,-0.043000000000000003
1701528683.822,19.609,19.609,-19.609,0.0011,-0.0005,0.0082,-0.22,0.232,-0.059000000000000004
1701528683.862,19.609,19.609,-19.609,0.0004,0.0028,-0.0092,-0.125,0.182,-0.059000000000000004
1701528683.902,19.609,19.609,-19.609,0.001,0.0039000000000000003,-0.0018000000000000002,-0.032,0.167,-0.098
1701528683.942,19.609,19.609,-19.609,0.0015,0.0028,-0.0005,0.01,0.151,-0.10400000000000001
1701528683.982,19.609,19.609,-19.609,0.0,0.0018000000000000002,-0.0018000000000000002,0.066,0.127,-0.111
1701528684.022,19.609,19.609,-19.609,0.00030000000000000003,0.0006000000000000001,-0.0159,0.088,0.14400000000000002,-0.11900000000000001
1701528684.062,19.609,19.609,-19.609,-0.0013000000000000002,0.0023,0.013000000000000001,0.244,0.147,-0.149
1701528684.102,19.609,19.609,-19.609,-0.0006000000000000001,0.0051,-0.0166,0.186,0.111,-0.139
1701528684.142,19.609,19.609,-19.609,0.0007,0.0014,-0.004200000000000001,0.162,0.061,-0.107
1701528684.182,19.609,19.609,-19.609,-0.0011,0.003,0.0051,0.187,0.069,-0.091
1701528684.222,19.609,19.609,-19.609,0.0019,0.0018000000000000002,-0.0047,0.15,0.046,-0.084
1701528684.2619998,19.609,19.609,-19.609,0.00030000000000000003,0.0008,-0.0029000000000000002,0.145,0.055,-0.059000000000000004
1701528684.302,19.609,19.609,-19.609,-0.0001,0.0028,-0.0053,0.056,0.012,-0.058
1701528684.342,19.609,19.609,-19.609,-0.0004,0.0046,-0.0018000000000000002,0.04,-0.005,-0.042
1701528684.382,19.609,19.609,-19.609,0.0008,0.0029000000000000002,-0.0122,0.033,-0.004,-0.059000000000000004
1701528684.422,19.609,19.609,-19.609,0.00030000000000000003,0.0037,-0.011300000000000001,0.059000000000000004,-0.014,-0.062
1701528684.462,19.609,19.609,-19.609,-0.0012000000000000001,0.0018000000000000002,0.0316,0.074,-0.028,-0.093
1701528684.5019999,19.609,19.609,-19.609,0.0008,0.0,-0.0033,0.068,-0.039,-0.10200000000000001
1701528684.542,19.609,19.609,-19.609,0.0005,0.0036000000000000003,-0.012100000000000001,0.066,-0.041,-0.112
1701528684.582,19.609,19.609,-19.609,0.0013000000000000002,0.0023,-0.0057,0.041,-0.051000000000000004,-0.095
1701528684.622,19.609,19.609,-19.609,-0.0018000000000000002,0.0039000000000000003,0.0004,0.056,-0.059000000000000004,-0.099
1701528684.662,19.609,19.609,-19.609,0.0009000000000000001,0.0036000000000000003,-0.0061,0.07100000000000001,-0.073,-0.099
1701528684.702,19.609,19.609,-19.609,0.00030000000000000003,0.0028,0.0006000000000000001,0.096,-0.095,-0.093
1701528684.7419999,19.609,19.609,-19.609,0.0024000000000000002,0.0032,-0.0018000000000000002,0.145,-0.112,-0.111
1701528684.782,19.609,19.609,-19.609,-0.0002,0.0045000000000000005,-0.0264,0.202,-0.121,-0.128
1701528684.822,19.609,19.609,-19.609,-0.0025,0.0028,0.0286,0.261,-0.135,-0.167
1701528684.862,19.609,19.609,-19.609,0.0006000000000000001,0.0021000000000000003,-0.0004,0.333,-0.10300000000000001,-0.213
1701528684.902,19.609,19.609,-19.609,-0.0017000000000000001,0.0025,-0.0108,0.331,-0.07100000000000001,-0.219
1701528684.942,19.609,19.609,-19.609,-0.0012000000000000001,0.0026000000000000003,-0.0014,0.329,-0.041,-0.251
1701528684.9819999,19.609,19.609,-19.609,-0.0006000000000000001,0.0038,-0.0182,0.28,-0.02,-0.232
1701528685.022,19.609,19.609,-19.609,0.0029000000000000002,0.0031000000000000003,0.0032,0.155,-0.003,-0.14400000000000002
1701528685.062,19.609,19.609,-19.609,0.0,0.0035,-0.013000000000000001,0.097,0.052000000000000005,-0.043000000000000003
1701528685.102,19.609,19.609,-19.609,0.0005,0.0023,-0.0218,0.101,0.079,-0.053
1701528685.142,19.609,19.609,-19.609,0.0009000000000000001,0.0031000000000000003,0.0161,0.161,0.13,-0.101
1701528685.182,19.609,19.609,-19.609,-0.0018000000000000002,0.0045000000000000005,0.006200000000000001,0.211,0.015,-0.158
1701528685.222,19.609,19.609,-19.609,0.0012000000000000001,0.0044,-0.0159,0.234,-0.062,-0.242
1701528685.262,19.609,19.609,-19.609,0.0018000000000000002,0.0025,0.0012000000000000001,0.229,-0.16,-0.241
1701528685.302,19.609,19.609,-19.609,-0.0018000000000000002,0.0012000000000000001,-0.0039000000000000003,0.123,-0.213,-0.191
1701528685.342,19.609,19.609,-19.609,0.0018000000000000002,0.0024000000000000002,-0.0034000000000000002,0.081,-0.23500000000000001,-0.126
1701528685.382,19.609,19.609,-19.609,0.0,0.0032,-0.0001,0.043000000000000003,-0.219,-0.025
1701528685.422,19.609,19.609,-19.609,0.0006000000000000001,0.0035,-0.014100000000000001,0.012,-0.211,-0.001
1701528685.462,19.609,19.609,-19.609,0.00030000000000000003,0.0031000000000000003,0.0017000000000000001,0.014,-0.262,-0.033
1701528685.502,19.609,19.609,-19.609,0.0009000000000000001,0.0019,-0.004,0.004,-0.249,-0.053
1701528685.542,19.609,19.609,-19.609,-0.00030000000000000003,0.0015,0.0119,0.009000000000000001,-0.2,-0.076
1701528685.582,19.609,19.609,-19.609,-0.0014,0.0012000000000000001,-0.001,0.012,-0.197,-0.106
1701528685.622,19.609,19.609,-19.609,-0.0011,0.0034000000000000002,-0.0037,-0.016,-0.159,-0.107
1701528685.662,19.609,19.609,-19.609,0.0005,0.0018000000000000002,-0.010400000000000001,-0.02,-0.171,-0.078
1701528685.702,19.609,19.609,-19.609,-0.0009000000000000001,-0.0001,0.0032,-0.008,-0.132,-0.10200000000000001
1701528685.742,19.609,19.609,-19.609,0.0001,0.0031000000000000003,0.0033,-0.047,-0.129,-0.114
1701528685.782,19.609,19.609,-19.609,0.0009000000000000001,0.0027,-0.010400000000000001,0.006,-0.064,-0.124
1701528685.822,19.609,19.609,-19.609,0.0009000000000000001,0.0037,0.0125,0.014,-0.043000000000000003,-0.121
1701528685.862,19.609,19.609,-19.609,0.0002,0.0031000000000000003,-0.0029000000000000002,0.034,-0.038,-0.125
1701528685.902,19.609,19.609,-19.609,-0.00030000000000000003,0.0026000000000000003,0.0011,0.035,-0.021,-0.10400000000000001
1701528685.942,19.609,19.609,-19.609,0.0011,0.0026000000000000003,-0.0004,0.024,-0.049,-0.089
1701528685.982,19.609,19.609,-19.609,-0.0005,0.0041,-0.0167,-0.028,-0.049,-0.09
1701528686.022,19.609,19.609,-19.609,-0.0029000000000000002,0.0039000000000000003,-0.0051,-0.011,-0.059000000000000004,-0.07200000000000001
1701528686.062,19.609,19.609,-19.609,-0.0014,0.0048000000000000004,0.022500000000000003,-0.017,-0.023,-0.07100000000000001
1701528686.102,19.609,19.609,-19.609,-0.0005,-0.0007,-0.0207,-0.029,0.0,-0.056
1701528686.142,19.609,19.609,-19.609,-0.0012000000000000001,0.0026000000000000003,0.0024000000000000002,-0.026000000000000002,0.0,-0.079
1701528686.182,19.609,19.609,-19.609,0.002,0.002,0.002,-0.014,-0.006,-0.105
1701528686.222,19.609,19.609,-19.609,0.0015,0.0016,-0.007,-0.031,-0.025,-0.111
1701528686.2619998,19.609,19.609,-19.609,0.0007,0.0024000000000000002,-0.0216,-0.008,-0.073,-0.131
1701528686.302,19.609,19.609,-19.609,-0.0005,0.0048000000000000004,0.0383,0.016,-0.078,-0.139
1701528686.342,19.609,19.609,-19.609,-0.0013000000000000002,0.0034000000000000002,-0.00030000000000000003,0.068,-0.12,-0.20400000000000001
1701528686.382,19.609,19.609,-19.609,-0.0002,0.0015,-0.024900000000000002,0.115,-0.126,-0.256
1701528686.422,19.609,19.609,-19.609,-0.001,0.0048000000000000004,0.018000000000000002,0.14300000000000002,-0.182,-0.321
1701528686.462,19.609,19.609,-19.609,0.0015,0.0044,-0.0123,0.187,-0.215,-0.391
1701528686.5019999,19.609,19.609,-19.609,-0.001,0.0024000000000000002,0.020300000000000002,0.23,-0.27,-0.433
1701528686.542,19.609,19.609,-19.609,-0.0019,0.0029000000000000002,-0.022000000000000002,0.272,-0.34800000000000003,-0.459
1701528686.582,19.609,19.609,-19.609,0.001,0.004200000000000001,-0.0327,0.224,-0.383,-0.41000000000000003
1701528686.622,19.609,19.609,-19.609,0.003,0.0024000000000000002,0.0661,0.18,-0.497,-0.363
1701528686.662,19.609,19.609,-19.609,-0.0029000000000000002,0.0019,-0.0179,0.203,-0.579,-0.362
1701528686.702,19.609,19.609,-19.609,-0.0016,0.0029000000000000002,0.0049,0.16,-0.54,-0.261
1701528686.7419999,19.609,19.609,-19.609,0.0017000000000000001,0.0029000000000000002,0.0043,0.196,-0.544,-0.257
1701528686.782,19.609,19.609,-19.609,0.0009000000000000001,0.0032,0.0,0.196,-0.43,-0.20500000000000002
1701528686.822,19.609,19.609,-19.609,0.0012000000000000001,-0.0012000000000000001,-0.025500000000000002,0.194,-0.366,-0.218
1701528686.862,19.609,19.609,-19.609,0.0006000000000000001,0.0015,0.027800000000000002,0.213,-0.306,-0.249
1701528686.902,19.609,19.609,-19.609,-0.0014,0.0022,0.0015,0.213,-0.264,-0.232
1701528686.942,19.609,19.609,-19.609,0.0009000000000000001,0.0034000000000000002,-0.0036000000000000003,0.194,-0.17500000000000002,-0.224
1701528686.9819999,19.609,19.609,-19.609,-0.0001,-0.0007,-0.0021000000000000003,0.184,-0.158,-0.233
1701528687.022,19.609,19.609,-19.609,0.0007,0.003,-0.0063,0.197,-0.164,-0.225
1701528687.062,19.609,19.609,-19.609,-0.0025,0.0039000000000000003,0.006900000000000001,0.185,-0.148,-0.211
1701528687.102,19.609,19.609,-19.609,-0.0014,0.0045000000000000005,-0.0051,0.11900000000000001,-0.113,-0.154
1701528687.142,19.609,19.609,-19.609,0.0011,0.0029000000000000002,0.0012000000000000001,0.096,-0.077,-0.137
1701528687.182,19.609,19.609,-19.609,-0.005200000000000001,0.0032,-0.0059,0.074,-0.043000000000000003,-0.15
1701528687.222,19.609,19.609,-19.609,0.0012000000000000001,0.0037,0.0166,0.053,-0.029,-0.14300000000000002
1701528687.262,19.609,19.609,-19.609,-0.0004,0.0029000000000000002,-0.0086,0.03,0.008,-0.112
1701528687.302,19.609,19.609,-19.609,0.0007,0.006,-0.008700000000000001,0.017,-0.012,-0.1
1701528687.342,19.609,19.609,-19.609,-0.00030000000000000003,0.002,0.0053,0.003,-0.018000000000000002,-0.084
1701528687.382,19.609,19.609,-19.609,0.0,0.0024000000000000002,0.0011,0.028,-0.041,-0.093
1701528687.422,19.609,19.609,-19.609,0.0007,0.0039000000000000003,-0.0008,0.011,-0.029,-0.098
1701528687.462,19.609,19.609,-19.609,0.0035,0.003,-0.013600000000000001,-0.008,-0.002,-0.093
1701528687.502,19.609,19.609,-19.609,0.0025,0.0037,0.0085,-0.004,-0.009000000000000001,-0.129
1701528687.542,19.609,19.609,-19.609,0.0008,0.0029000000000000002,-0.0092,0.013000000000000001,-0.007,-0.122
1701528687.582,19.609,19.609,-19.609,0.0012000000000000001,0.0028,-0.0017000000000000001,0.033,-0.025,-0.125
1701528687.622,19.609,19.609,-19.609,-0.0009000000000000001,0.0019,-0.0014,-0.009000000000000001,-0.026000000000000002,-0.092
1701528687.662,19.609,19.609,-19.609,-0.0001,0.0028,0.0029000000000000002,-0.006,-0.012,-0.084
1701528687.702,19.609,19.609,-19.609,0.0005,0.0023,0.0034000000000000002,-0.016,0.027,-0.089
1701528687.742,19.609,19.609,-19.609,0.0007,0.0023,-0.0037,0.034,0.044,-0.11900000000000001
1701528687.782,19.609,19.609,-19.609,0.0008,0.0034000000000000002,-0.004,0.027,0.059000000000000004,-0.13
1701528687.822,19.609,19.609,-19.609,-0.0001,0.0027,-0.0012000000000000001,0.016,0.005,-0.115
1701528687.862,19.609,19.609,-19.609,-0.00030000000000000003,0.0001,-0.017,-0.027,-0.059000000000000004,-0.112
1701528687.902,19.609,19.609,-19.609,0.0013000000000000002,0.0009000000000000001,0.014400000000000001,-0.031,-0.091,-0.083
1701528687.942,19.609,19.609,-19.609,0.0014,0.0013000000000000002,-0.0068000000000000005,-0.042,-0.059000000000000004,-0.10400000000000001
1701528687.982,19.609,19.609,-19.609,-0.0001,0.003,0.013000000000000001,-0.022,-0.019,-0.129
1701528688.022,19.609,19.609,-19.609,-0.0002,0.0009000000000000001,-0.0048000000000000004,-0.008,-0.002,-0.17200000000000001
1701528688.062,19.609,19.609,-19.609,0.0018000000000000002,0.0026000000000000003,-0.0071,-0.021,-0.02,-0.151
1701528688.102,19.609,19.609,-19.609,-0.0014,0.0037,0.014,-0.026000000000000002,-0.049,-0.126
1701528688.142,19.609,19.609,-19.609,0.0015,0.0024000000000000002,-0.0059,-0.022,-0.06,-0.105
1701528688.182,19.609,19.609,-19.609,-0.0007,0.0045000000000000005,-0.0046,-0.015,-0.058,-0.107
1701528688.222,19.609,19.609,-19.609,-0.0015,0.0044,0.010100000000000001,-0.01,-0.056,-0.111
1701528688.2619998,19.609,19.609,-19.609,0.0021000000000000003,0.0051,0.0051,-0.012,-0.053,-0.129
1701528688.302,19.609,19.609,-19.609,0.0027,-0.0001,0.002,-0.015,-0.06,-0.117
1701528688.342,19.609,19.609,-19.609,0.0015,0.0041,-0.003,-0.009000000000000001,-0.066,-0.094
1701528688.382,19.609,19.609,-19.609,-0.0006000000000000001,0.0032,-0.028900000000000002,-0.002,-0.051000000000000004,-0.092
1701528688.422,19.609,19.609,-19.609,0.0018000000000000002,0.0016,0.030000000000000002,0.008,-0.039,-0.097
1701528688.462,19.609,19.609,-19.609,0.0001,0.0039000000000000003,-0.0315,0.006,-0.048,-0.10200000000000001
1701528688.5019999,19.609,19.609,-19.609,0.0004,0.0046,-0.011000000000000001,-0.004,-0.046,-0.094
1701528688.542,19.609,19.609,-19.609,-0.0018000000000000002,0.0001,-0.0064,-0.006,-0.034,-0.08
1701528688.582,19.609,19.609,-19.609,-0.00030000000000000003,0.0009000000000000001,-0.0015,-0.017,-0.028,-0.094
1701528688.622,19.609,19.609,-19.609,-0.0004,0.0048000000000000004,-0.0238,-0.016,-0.007,-0.107
1701528688.662,19.609,19.609,-19.609,-0.0002,0.0037,0.034,-0.019,0.007,-0.116
1701528688.702,19.609,19.609,-19.609,0.0007,0.0031000000000000003,-0.0047,-0.023,0.002,-0.11800000000000001
1701528688.7419999,19.609,19.609,-19.609,0.0014,0.0034000000000000002,0.0009000000000000001,-0.028,0.023,-0.10400000000000001
1701528688.782,19.609,19.609,-19.609,0.0017000000000000001,0.0016,-0.0063,-0.023,0.024,-0.121
1701528688.822,19.609,19.609,-19.609,0.0025,0.0027,0.0006000000000000001,0.003,0.035,-0.128
1701528688.862,19.609,19.609,-19.609,0.0,0.0051,-0.002,-0.03,0.08,-0.122
1701528688.902,19.609,19.609,-19.609,0.003,0.0008,-0.0007,-0.041,0.177,-0.07
1701528688.942,19.609,19.609,-19.609,-0.0009000000000000001,0.0033,-0.0142,-0.064,0.34600000000000003,0.001
1701528688.9819999,19.609,19.609,-19.609,-0.0025,0.0014,0.018000000000000002,-0.123,0.762,0.186
1701528689.022,19.609,19.609,-19.609,-0.0001,0.0031000000000000003,-0.0055000000000000005,-0.183,1.072,0.329
1701528689.062,19.609,19.609,-19.609,0.0006000000000000001,0.0029000000000000002,0.0008,-0.312,0.962,0.397
1701528689.102,19.609,19.609,-19.609,-0.0017000000000000001,0.0029000000000000002,-0.0064,-0.505,0.905,0.3
1701528689.142,19.609,19.609,-19.609,0.0011,0.0031000000000000003,-0.0021000000000000003,-0.526,0.8200000000000001,0.176
1701528689.182,19.609,19.609,-19.609,0.00030000000000000003,0.0036000000000000003,-0.0436,-0.385,0.557,0.048
1701528689.222,19.609,19.609,-19.609,-0.0009000000000000001,0.0032,0.0446,-0.259,0.428,-0.031
1701528689.262,19.609,19.609,-19.609,0.00030000000000000003,0.0032,-0.0183,-0.148,0.293,-0.113
1701528689.302,19.609,19.609,-19.609,0.0001,0.0037,0.018000000000000002,-0.099,0.17200000000000001,-0.145
1701528689.342,19.609,19.609,-19.609,0.00030000000000000003,0.0025,-0.0061,-0.061,0.149,-0.132
1701528689.382,19.609,19.609,-19.609,0.004,0.0035,-0.025500000000000002,-0.061,0.129,-0.098
1701528689.422,19.609,19.609,-19.609,-0.0014,0.0035,0.014100000000000001,-0.067,0.069,-0.08700000000000001
1701528689.462,19.609,19.609,-19.609,0.0011,0.0039000000000000003,-0.0017000000000000001,-0.031,0.05,-0.08600000000000001
1701528689.502,19.609,19.609,-19.609,-0.0023,0.0026000000000000003,0.0066,0.022,-0.014,-0.105
1701528689.542,19.609,19.609,-19.609,-0.0014,0.0027,0.0031000000000000003,0.033,-0.06,-0.107
1701528689.582,19.609,19.609,-19.609,-0.0031000000000000003,0.0021000000000000003,0.0013000000000000002,0.035,-0.09,-0.094
1701528689.622,19.609,19.609,-19.609,-0.0034000000000000002,0.0007,-0.018000000000000002,0.06,-0.083,-0.08700000000000001
1701528689.662,19.609,19.609,-19.609,0.0013000000000000002,0.005,0.016,0.058,-0.08,-0.075
1701528689.702,19.609,19.609,-19.609,0.0,0.0048000000000000004,-0.0029000000000000002,0.074,-0.097,-0.096
1701528689.742,19.609,19.609,-19.609,-0.0039000000000000003,0.0025,0.0,0.096,-0.078,-0.108
1701528689.782,19.609,19.609,-19.609,0.00030000000000000003,0.0032,-0.0123,0.10200000000000001,-0.08,-0.11
1701528689.822,19.609,19.609,-19.609,0.0018000000000000002,0.0026000000000000003,0.0158,0.094,-0.07,-0.112
1701528689.862,19.609,19.609,-19.609,0.0005,0.0056,-0.0466,0.088,-0.07200000000000001,-0.115
1701528689.902,19.609,19.609,-19.609,0.0007,0.0047,0.048100000000000004,0.1,-0.051000000000000004,-0.132
1701528689.942,19.609,19.609,-19.609,-0.0014,0.0048000000000000004,-0.007,0.12,-0.079,-0.123
1701528689.982,19.609,19.609,-19.609,-0.0009000000000000001,0.0046,-0.040100000000000004,0.113,-0.153,-0.152
1701528690.022,19.609,19.609,-19.609,0.0036000000000000003,0.0025,0.040100000000000004,0.127,-0.203,-0.185
1701528690.062,19.609,19.609,-19.609,-0.0019,0.0013000000000000002,-0.0166,0.153,-0.301,-0.258
1701528690.102,19.609,19.609,-19.609,0.0007,0.0035,0.015700000000000002,0.176,-0.275,-0.352
1701528690.142,19.609,19.609,-19.609,-0.0006000000000000001,0.0022,-0.0001,0.23,-0.527,-0.387
1701528690.182,19.609,19.609,-19.609,-0.0006000000000000001,0.0021000000000000003,0.019100000000000002,0.098,-0.882,-0.301
1701528690.222,19.609,19.609,-19.609,-0.0037,0.0027,-0.006500000000000001,0.079,-1.16,-0.249
1701528690.2619998,19.609,19.609,-19.609,0.00030000000000000003,0.004,0.0182,0.043000000000000003,-1.046,-0.209
1701528690.302,19.609,19.609,-19.609,-0.0016,0.0006000000000000001,0.0048000000000000004,-0.009000000000000001,-0.586,-0.196
1701528690.342,19.609,19.609,-19.609,-0.0007,0.0044,-0.005200000000000001,-0.029,-0.105,-0.182
1701528690.382,19.609,19.609,-19.609,-0.0007,0.0021000000000000003,0.0031000000000000003,0.004,0.511,-0.177
1701528690.422,19.609,19.609,-19.609,-0.0004,0.0001,0.0043,0.033,0.857,-0.23700000000000002
