timestamp,acc_x,acc_y,acc_z,magn_x,magn_y,magn_z,gyro_x,gyro_y,gyro_z
1701528248.395,19.609,19.609,-19.609,-0.00030000000000000003,0.0006000000000000001,-0.0037,0.017,0.063,-0.23700000000000002
1701528248.435,19.609,19.609,-19.609,-0.0037,0.0044,0.0028,1.5090000000000001,-0.458,-2.273
1701528248.475,19.609,19.609,-19.609,0.0037,0.0018000000000000002,0.0021000000000000003,1.163,-0.47900000000000004,-1.975
1701528248.5149999,19.609,19.609,-19.609,0.0022,0.0013000000000000002,0.0026000000000000003,0.963,-0.6,-1.752
1701528248.555,19.609,19.609,-19.609,-0.0015,0.0018000000000000002,0.0046,0.671,-0.621,-1.401
1701528248.595,19.609,19.609,-19.609,0.0006000000000000001,0.0029000000000000002,0.0021000000000000003,0.503,-0.674,-1.185
1701528248.635,19.609,19.609,-19.609,-0.0007,0.001,0.0083,0.256,-0.599,-0.905
1701528248.675,19.609,19.609,-19.609,-0.0002,0.0031000000000000003,0.0009000000000000001,0.115,-0.514,-0.6960000000000001
1701528248.715,19.609,19.609,-19.609,0.0021000000000000003,0.0025,0.0151,-0.055,-0.364,-0.378
1701528248.7549999,19.609,19.609,-19.609,0.001,-0.0006000000000000001,0.0076,-0.158,-0.252,-0.157
1701528248.795,19.609,19.609,-19.609,0.0012000000000000001,0.0009000000000000001,0.0028,-0.28400000000000003,-0.122,0.115
1701528248.835,19.609,19.609,-19.609,0.0025,0.0021000000000000003,0.0029000000000000002,-0.368,-0.082,0.298
1701528248.875,19.609,19.609,-19.609,0.0007,0.0001,0.0106,-0.501,-0.004,0.5760000000000001
1701528248.915,19.609,19.609,-19.609,0.0014,0.001,0.0041,-0.633,0.117,0.8220000000000001
1701528248.955,19.609,19.609,-19.609,0.0006000000000000001,-0.00030000000000000003,0.004200000000000001,-0.802,0.333,1.247
1701528248.995,19.609,19.609,-19.609,0.0015,0.002,0.0025,-0.903,0.378,1.582
1701528249.035,19.609,19.609,-19.609,0.002,0.0025,0.0264,-1.033,0.333,1.932
1701528249.075,19.609,19.609,-19.609,0.0013000000000000002,0.0018000000000000002,0.0198,-0.916,0.329,1.945
1701528249.115,19.609,19.609,-19.609,-0.002,0.0005,0.007,-0.761,0.303,1.833
1701528249.155,19.609,19.609,-19.609,0.0008,0.0023,0.0045000000000000005,-0.656,0.233,1.702
1701528249.195,19.609,19.609,-19.609,0.0018000000000000002,0.0034000000000000002,0.0012000000000000001,-0.47100000000000003,0.263,1.482
1701528249.235,19.609,19.609,-19.609,0.0012000000000000001,0.0029000000000000002,0.0,-0.321,0.187,1.249
1701528249.275,19.609,19.609,-19.609,0.0009000000000000001,0.0008,0.0115,-0.17500000000000002,0.17,1.0150000000000001
1701528249.315,19.609,19.609,-19.609,0.001,0.0022,0.0007,-0.121,0.11800000000000001,0.932
1701528249.355,19.609,19.609,-19.609,0.0022,0.0025,-0.01,-0.157,0.012,0.917
1701528249.395,19.609,19.609,-19.609,0.0024000000000000002,0.0015,0.0076,-0.06,-0.017,0.687
1701528249.435,19.609,19.609,-19.609,0.0015,0.0039000000000000003,-0.0045000000000000005,0.034,-0.039,0.42
1701528249.475,19.609,19.609,-19.609,0.0025,0.0029000000000000002,0.0054,0.052000000000000005,-0.053,0.256
1701528249.515,19.609,19.609,-19.609,0.0006000000000000001,0.003,-0.0047,0.077,-0.114,0.062
1701528249.555,19.609,19.609,-19.609,0.0015,0.0021000000000000003,-0.0019,0.057,-0.114,-0.022
1701528249.595,19.609,19.609,-19.609,0.0012000000000000001,0.0025,-0.0019,0.029,-0.129,-0.053
1701528249.635,19.609,19.609,-19.609,0.0018000000000000002,0.0002,0.0032,-0.015,-0.11900000000000001,-0.07100000000000001
1701528249.675,19.609,19.609,-19.609,0.0034000000000000002,0.0039000000000000003,-0.0007,-0.03,-0.16,-0.094
1701528249.715,19.609,19.609,-19.609,0.0026000000000000003,0.0016,-0.0048000000000000004,-0.013000000000000001,-0.299,-0.14100000000000001
1701528249.755,19.609,19.609,-19.609,0.0031000000000000003,0.0015,-0.0007,-0.004,-0.218,-0.136
1701528249.795,19.609,19.609,-19.609,0.0009000000000000001,0.004200000000000001,-0.0014,0.006,-0.11,-0.14100000000000001
1701528249.835,19.609,19.609,-19.609,0.0023,0.0034000000000000002,0.0009000000000000001,-0.016,-0.166,-0.196
1701528249.875,19.609,19.609,-19.609,0.001,0.0023,-0.0029000000000000002,0.008,-0.165,-0.21
1701528249.915,19.609,19.609,-19.609,0.0026000000000000003,0.0023,0.0015,-0.023,-0.094,-0.193
1701528249.955,19.609,19.609,-19.609,0.0005,0.0038,0.0009000000000000001,-0.048,-0.064,-0.154
1701528249.995,19.609,19.609,-19.609,0.0021000000000000003,0.004,-0.0085,-0.05,-0.064,-0.137
1701528250.0349998,19.609,19.609,-19.609,-0.001,0.0025,-0.0022,-0.052000000000000005,-0.09,-0.15
1701528250.075,19.609,19.609,-19.609,0.0001,0.002,0.0007,-0.034,-0.049,-0.159
1701528250.115,19.609,19.609,-19.609,0.0041,0.0015,0.003,-0.024,-0.024,-0.147
1701528250.155,19.609,19.609,-19.609,0.0015,0.002,-0.0073,0.01,0.02,-0.131
1701528250.195,19.609,19.609,-19.609,0.0032,0.0017000000000000001,-0.0005,-0.006,0.044,-0.106
1701528250.235,19.609,19.609,-19.609,0.0034000000000000002,0.0039000000000000003,-0.0037,0.001,0.098,-0.088
1701528250.2749999,19.609,19.609,-19.609,0.0023,0.0036000000000000003,0.0006000000000000001,0.029,0.126,-0.081
1701528250.315,19.609,19.609,-19.609,-0.0038,0.001,0.0048000000000000004,0.029,0.124,-0.078
1701528250.355,19.609,19.609,-19.609,0.0,0.001,-0.0055000000000000005,0.038,0.116,-0.07200000000000001
1701528250.395,19.609,19.609,-19.609,-0.001,0.0026000000000000003,-0.0031000000000000003,0.017,0.034,-0.061
1701528250.435,19.609,19.609,-19.609,0.002,0.0025,0.0032,0.001,-0.07200000000000001,-0.038
1701528250.475,19.609,19.609,-19.609,0.0012000000000000001,0.0029000000000000002,-0.0028,-0.017,-0.147,-0.025
1701528250.5149999,19.609,19.609,-19.609,0.0021000000000000003,0.0035,-0.006500000000000001,-0.025,-0.14,-0.03
1701528250.555,19.609,19.609,-19.609,-0.0007,0.0014,0.0017000000000000001,-0.033,-0.11800000000000001,-0.057
1701528250.595,19.609,19.609,-19.609,0.0001,0.0043,-0.0057,-0.036000000000000004,-0.08600000000000001,-0.082
1701528250.635,19.609,19.609,-19.609,0.0028,0.0027,0.002,-0.034,-0.08,-0.076
1701528250.675,19.609,19.609,-19.609,0.0016,0.0012000000000000001,-0.0017000000000000001,-0.057,-0.048,-0.076
1701528250.715,19.609,19.609,-19.609,0.0016,0.0027,-0.0024000000000000002,-0.068,-0.017,-0.091
1701528250.7549999,19.609,19.609,-19.609,0.0002,0.0031000000000000003,0.009000000000000001,-0.09,0.033,-0.113
1701528250.795,19.609,19.609,-19.609,-0.0026000000000000003,0.005200000000000001,0.002,-0.108,0.028,-0.136
1701528250.835,19.609,19.609,-19.609,0.0007,0.0029000000000000002,0.011300000000000001,-0.107,0.002,-0.146
1701528250.875,19.609,19.609,-19.609,-0.0004,0.0026000000000000003,0.0148,-0.11800000000000001,0.012,-0.14200000000000002
1701528250.915,19.609,19.609,-19.609,0.0039000000000000003,0.0054,-0.0068000000000000005,-0.169,0.009000000000000001,-0.139
1701528250.955,19.609,19.609,-19.609,0.0029000000000000002,0.0031000000000000003,0.0009000000000000001,-0.17300000000000001,-0.032,-0.132
1701528250.995,19.609,19.609,-19.609,-0.0004,0.001,0.0006000000000000001,-0.164,-0.056,-0.149
1701528251.035,19.609,19.609,-19.609,0.0034000000000000002,0.0004,-0.0026000000000000003,-0.171,-0.053,-0.152
1701528251.075,19.609,19.609,-19.609,0.0023,0.0043,-0.0014,-0.157,-0.047,-0.135
1701528251.115,19.609,19.609,-19.609,0.0006000000000000001,0.0025,-0.0063,-0.265,-0.107,-0.145
1701528251.155,19.609,19.609,-19.609,0.0007,0.0017000000000000001,-0.0009000000000000001,-0.14300000000000002,-0.088,-0.126
1701528251.195,19.609,19.609,-19.609,0.004200000000000001,0.0048000000000000004,-0.004,-0.133,-0.096,-0.12
1701528251.235,19.609,19.609,-19.609,0.001,0.0028,-0.0014,-0.095,-0.083,-0.114
1701528251.275,19.609,19.609,-19.609,0.0028,0.0014,-0.0045000000000000005,-0.005,-0.074,-0.125
1701528251.315,19.609,19.609,-19.609,-0.00030000000000000003,0.003,-0.0032,0.0,-0.081,-0.122
1701528251.355,19.609,19.609,-19.609,-0.0017000000000000001,0.0034000000000000002,-0.002,0.003,-0.085,-0.126
1701528251.395,19.609,19.609,-19.609,-0.0002,0.0022,0.0038,-0.014,-0.091,-0.13
1701528251.435,19.609,19.609,-19.609,0.0012000000000000001,0.0011,-0.0056,-0.011,-0.10400000000000001,-0.11800000000000001
1701528251.475,19.609,19.609,-19.609,0.001,0.0031000000000000003,0.0023,-0.012,-0.07200000000000001,-0.109
1701528251.515,19.609,19.609,-19.609,0.0004,0.002,-0.0245,-0.015,-0.026000000000000002,-0.126
1701528251.555,19.609,19.609,-19.609,0.0004,0.0034000000000000002,0.0158,-0.018000000000000002,-0.047,-0.11900000000000001
1701528251.595,19.609,19.609,-19.609,0.00030000000000000003,0.0041,-0.0038,-0.031,-0.081,-0.122
1701528251.635,19.609,19.609,-19.609,0.0,0.0041,-0.0114,-0.02,-0.075,-0.113
1701528251.675,19.609,19.609,-19.609,0.0025,0.0023,0.004200000000000001,-0.018000000000000002,-0.056,-0.112
1701528251.715,19.609,19.609,-19.609,0.0019,0.0014,-0.0032,0.007,-0.062,-0.128
1701528251.755,19.609,19.609,-19.609,0.0017000000000000001,0.00030000000000000003,0.003,0.0,-0.058,-0.11900000000000001
1701528251.795,19.609,19.609,-19.609,0.0013000000000000002,0.0015,-0.0007,0.003,-0.052000000000000005,-0.115
1701528251.835,19.609,19.609,-19.609,0.0023,0.0041,-0.0037,-0.005,-0.049,-0.10400000000000001
1701528251.875,19.609,19.609,-19.609,0.0033,0.0027,-0.0028,-0.009000000000000001,-0.028,-0.1
1701528251.915,19.609,19.609,-19.609,0.0013000000000000002,-0.0001,-0.0031000000000000003,-0.011,-0.035,-0.089
1701528251.955,19.609,19.609,-19.609,0.0045000000000000005,0.0031000000000000003,0.0004,-0.009000000000000001,-0.037,-0.092
1701528251.995,19.609,19.609,-19.609,0.0,0.0033,0.0018000000000000002,-0.01,-0.028,-0.10200000000000001
1701528252.0349998,19.609,19.609,-19.609,0.0026000000000000003,0.0014,-0.0012000000000000001,-0.006,-0.037,-0.109
1701528252.075,19.609,19.609,-19.609,0.0025,0.0033,-0.0022,-0.008,-0.036000000000000004,-0.097
1701528252.115,19.609,19.609,-19.609,0.0017000000000000001,0.0036000000000000003,0.0019,-0.01,-0.051000000000000004,-0.1
1701528252.155,19.609,19.609,-19.609,0.0036000000000000003,0.0012000000000000001,-0.0011,-0.006,-0.027,-0.093
1701528252.195,19.609,19.609,-19.609,0.0015,0.0026000000000000003,-0.0041,-0.005,-0.022,-0.095
1701528252.235,19.609,19.609,-19.609,0.003,0.0018000000000000002,0.0031000000000000003,0.014,-0.048,-0.10400000000000001
1701528252.2749999,19.609,19.609,-19.609,0.0031000000000000003,0.0012000000000000001,-0.0039000000000000003,0.03,-0.066,-0.101
1701528252.315,19.609,19.609,-19.609,-0.0016,0.0017000000000000001,0.0058000000000000005,0.026000000000000002,-0.029,-0.08700000000000001
1701528252.355,19.609,19.609,-19.609,0.0,0.0034000000000000002,-0.0001,0.019,-0.026000000000000002,-0.08700000000000001
1701528252.395,19.609,19.609,-19.609,-0.0007,0.0035,-0.00030000000000000003,0.015,-0.037,-0.09
1701528252.435,19.609,19.609,-19.609,0.0021000000000000003,0.001,-0.0047,0.017,-0.04,-0.10300000000000001
1701528252.475,19.609,19.609,-19.609,0.0025,0.0026000000000000003,-0.0009000000000000001,0.022,-0.027,-0.109
1701528252.5149999,19.609,19.609,-19.609,0.0001,0.0006000000000000001,0.0076,0.011,-0.054,-0.123
1701528252.555,19.609,19.609,-19.609,0.0014,0.0023,-0.0002,0.025,-0.024,-0.114
1701528252.595,19.609,19.609,-19.609,0.0017000000000000001,0.0025,-0.010400000000000001,0.018000000000000002,-0.021,-0.11800000000000001
1701528252.635,19.609,19.609,-19.609,0.0014,0.0025,0.005,0.02,0.0,-0.106
1701528252.675,19.609,19.609,-19.609,0.0,0.0038,-0.0031000000000000003,0.029,0.029,-0.08700000000000001
1701528252.715,19.609,19.609,-19.609,0.0021000000000000003,0.0012000000000000001,-0.0006000000000000001,0.051000000000000004,0.058,-0.08600000000000001
1701528252.7549999,19.609,19.609,-19.609,0.0016,0.0031000000000000003,-0.0006000000000000001,0.068,0.056,-0.096
1701528252.795,19.609,19.609,-19.609,0.001,0.0049,0.0007,0.062,0.092,-0.069
1701528252.835,19.609,19.609,-19.609,0.0004,0.0039000000000000003,0.006900000000000001,0.059000000000000004,0.135,-0.044
1701528252.875,19.609,19.609,-19.609,-0.0007,0.0039000000000000003,0.0001,0.047,0.147,-0.042
1701528252.915,19.609,19.609,-19.609,0.004,0.0024000000000000002,-0.0057,0.052000000000000005,0.151,0.0
1701528252.955,19.609,19.609,-19.609,-0.0012000000000000001,0.0019,-0.0026000000000000003,0.044,0.215,0.06
1701528252.995,19.609,19.609,-19.609,0.0043,0.004200000000000001,-0.0026000000000000003,0.049,0.164,0.099
1701528253.035,19.609,19.609,-19.609,0.002,0.0024000000000000002,-0.0019,0.039,0.209,0.159
1701528253.075,19.609,19.609,-19.609,-0.0002,0.0027,-0.0007,-0.03,0.25,0.254
1701528253.115,19.609,19.609,-19.609,0.0008,0.0037,0.0021000000000000003,-0.076,0.248,0.315
1701528253.155,19.609,19.609,-19.609,0.0017000000000000001,0.0034000000000000002,-0.0056,-0.147,0.266,0.375
1701528253.195,19.609,19.609,-19.609,0.0026000000000000003,0.0043,-0.0001,-0.184,0.265,0.393
1701528253.235,19.609,19.609,-19.609,0.0022,0.0029000000000000002,-0.00030000000000000003,-0.19,0.262,0.314
1701528253.275,19.609,19.609,-19.609,0.0,0.0022,-0.0013000000000000002,-0.124,0.302,0.23800000000000002
1701528253.315,19.609,19.609,-19.609,0.0006000000000000001,0.0032,-0.0057,-0.077,0.318,0.166
1701528253.355,19.609,19.609,-19.609,0.0025,0.0026000000000000003,-0.0039000000000000003,-0.018000000000000002,0.342,0.168
1701528253.395,19.609,19.609,-19.609,0.0018000000000000002,0.0025,0.0009000000000000001,0.089,0.375,0.115
1701528253.435,19.609,19.609,-19.609,0.0008,0.0023,-0.0034000000000000002,0.165,0.368,0.08700000000000001
1701528253.475,19.609,19.609,-19.609,0.0014,0.0033,-0.0029000000000000002,0.191,0.47800000000000004,0.08600000000000001
1701528253.515,19.609,19.609,-19.609,0.0017000000000000001,0.0011,-0.002,0.35000000000000003,0.532,0.016
1701528253.555,19.609,19.609,-19.609,0.0014,0.0022,-0.0026000000000000003,0.423,0.598,-0.088
1701528253.595,19.609,19.609,-19.609,0.0006000000000000001,0.0021000000000000003,-0.0029000000000000002,0.509,0.641,-0.199
1701528253.635,19.609,19.609,-19.609,0.00030000000000000003,0.0016,0.00030000000000000003,0.524,0.683,-0.28700000000000003
1701528253.675,19.609,19.609,-19.609,0.0031000000000000003,0.0022,0.0004,0.532,0.667,-0.298
1701528253.715,19.609,19.609,-19.609,0.0005,0.0031000000000000003,-0.003,0.47400000000000003,0.683,-0.278
1701528253.755,19.609,19.609,-19.609,-0.0023,0.0027,0.0043,0.396,0.623,-0.248
1701528253.795,19.609,19.609,-19.609,0.002,0.0019,-0.0045000000000000005,0.281,0.558,-0.23900000000000002
1701528253.835,19.609,19.609,-19.609,0.0021000000000000003,0.0034000000000000002,0.0039000000000000003,0.225,0.49,-0.212
1701528253.875,19.609,19.609,-19.609,0.0009000000000000001,0.001,-0.0051,0.19,0.442,-0.181
1701528253.915,19.609,19.609,-19.609,-0.0015,0.0016,0.004200000000000001,0.14,0.40700000000000003,-0.171
1701528253.955,19.609,19.609,-19.609,-0.0009000000000000001,0.0049,-0.003,0.09,0.363,-0.17500000000000002
1701528253.995,19.609,19.609,-19.609,-0.0017000000000000001,0.0043,-0.0033,0.058,0.321,-0.138
1701528254.0349998,19.609,19.609,-19.609,-0.0012000000000000001,0.0008,0.002,-0.002,0.295,-0.096
1701528254.075,19.609,19.609,-19.609,0.003,0.004200000000000001,-0.0013000000000000002,-0.036000000000000004,0.312,-0.077
1701528254.115,19.609,19.609,-19.609,-0.0007,0.002,-0.003,-0.061,0.377,-0.07200000000000001
1701528254.155,19.609,19.609,-19.609,0.0001,0.0037,0.0039000000000000003,-0.045,0.391,-0.083
1701528254.195,19.609,19.609,-19.609,0.004,0.0086,-0.0076,0.0,0.354,-0.147
1701528254.235,19.609,19.609,-19.609,0.0004,0.0027,-0.002,-0.125,0.375,-0.114
1701528254.2749999,19.609,19.609,-19.609,-0.0006000000000000001,0.0063,-0.0017000000000000001,-0.199,0.353,0.0
1701528254.315,19.609,19.609,-19.609,-0.0017000000000000001,0.0043,-0.0123,-0.153,0.387,0.008
1701528254.355,19.609,19.609,-19.609,0.0014,0.0028,-0.0258,-0.129,0.28,-0.047
1701528254.395,19.609,19.609,-19.609,0.0005,0.0058000000000000005,-0.0017000000000000001,-0.212,0.20400000000000001,0.004
1701528254.435,19.609,19.609,-19.609,-0.0018000000000000002,0.0011,0.0068000000000000005,-0.164,0.28,0.035
1701528254.475,19.609,19.609,-19.609,0.0011,0.0026000000000000003,-0.0028,-0.111,0.34500000000000003,-0.01
1701528254.5149999,19.609,19.609,-19.609,0.0013000000000000002,0.0024000000000000002,-0.0046,-0.193,0.342,-0.026000000000000002
1701528254.555,19.609,19.609,-19.609,0.0023,0.0034000000000000002,0.0051,-0.22,0.244,-0.07200000000000001
1701528254.595,19.609,19.609,-19.609,0.0,0.0054,-0.0089,-0.183,0.232,-0.095
1701528254.635,19.609,19.609,-19.609,0.0005,0.0046,-0.024900000000000002,-0.187,0.185,-0.148
1701528254.675,19.609,19.609,-19.609,0.00030000000000000003,0.0051,0.0324,-0.293,0.155,-0.134
1701528254.715,19.609,19.609,-19.609,-0.0004,0.0041,-0.0098,-0.20400000000000001,0.228,-0.093
1701528254.7549999,19.609,19.609,-19.609,-0.0006000000000000001,0.0054,-0.0063,-0.156,0.117,-0.168
1701528254.795,19.609,19.609,-19.609,0.0007,0.0023,-0.0012000000000000001,-0.14,0.074,-0.218
1701528254.835,19.609,19.609,-19.609,0.0012000000000000001,0.0029000000000000002,-0.0021000000000000003,-0.22,-0.1,-0.305
1701528254.875,19.609,19.609,-19.609,0.0017000000000000001,0.0043,-0.0216,-0.203,-0.094,-0.34400000000000003
1701528254.915,19.609,19.609,-19.609,-0.0012000000000000001,0.0009000000000000001,0.0223,-0.323,-0.331,-0.292
1701528254.955,19.609,19.609,-19.609,-0.0001,0.0028,-0.007,-0.167,-0.338,-0.374
1701528254.995,19.609,19.609,-19.609,0.0,0.0011,-0.007200000000000001,-0.10300000000000001,-0.154,-0.34400000000000003
1701528255.035,19.609,19.609,-19.609,0.0009000000000000001,0.0046,-0.0015,-0.189,0.017,-0.254
1701528255.075,19.609,19.609,-19.609,0.00030000000000000003,0.0039000000000000003,0.0005,-0.07,0.353,-0.214
1701528255.115,19.609,19.609,-19.609,0.0018000000000000002,0.004,-0.0016,0.10300000000000001,-0.083,-0.254
1701528255.155,19.609,19.609,-19.609,-0.0009000000000000001,0.0034000000000000002,-0.0025,0.313,0.162,-0.085
1701528255.195,19.609,19.609,-19.609,0.0006000000000000001,0.0016,-0.006,0.20500000000000002,-0.303,-0.309
1701528255.235,19.609,19.609,-19.609,-0.001,0.0034000000000000002,0.0057,0.035,-0.041,-0.225
1701528255.275,19.609,19.609,-19.609,0.0007,0.0039000000000000003,-0.015000000000000001,-0.065,-0.091,-0.251
1701528255.315,19.609,19.609,-19.609,0.00030000000000000003,0.004200000000000001,0.0296,-0.074,0.007,-0.212
1701528255.355,19.609,19.609,-19.609,-0.0007,0.0029000000000000002,-0.0053,-0.1,0.11800000000000001,-0.17200000000000001
1701528255.395,19.609,19.609,-19.609,0.0006000000000000001,0.0021000000000000003,-0.0067,-0.078,0.15,-0.094
1701528255.435,19.609,19.609,-19.609,0.00030000000000000003,0.0012000000000000001,-0.0045000000000000005,-0.029,0.16,-0.047
1701528255.475,19.609,19.609,-19.609,0.0007,0.0019,-0.0037,0.069,0.063,-0.124
1701528255.515,19.609,19.609,-19.609,-0.0015,0.0011,-0.0068000000000000005,0.106,0.065,-0.115
1701528255.555,19.609,19.609,-19.609,0.0006000000000000001,0.0007,-0.0076,0.167,0.196,-0.076
1701528255.595,19.609,19.609,-19.609,0.0019,0.0024000000000000002,0.0068000000000000005,0.113,-0.197,-0.233
1701528255.635,19.609,19.609,-19.609,0.0025,0.0049,0.0002,-0.169,-0.136,-0.29
1701528255.675,19.609,19.609,-19.609,0.0009000000000000001,0.0027,-0.005,-0.454,0.11800000000000001,-0.08700000000000001
1701528255.715,19.609,19.609,-19.609,-0.0024000000000000002,0.004,-0.0025,-0.257,-0.07100000000000001,0.186
1701528255.755,19.609,19.609,-19.609,0.001,0.002,-0.0095,-0.109,-0.107,0.325
1701528255.795,19.609,19.609,-19.609,-0.0025,0.00030000000000000003,-0.00030000000000000003,0.008,0.081,0.343
1701528255.835,19.609,19.609,-19.609,0.0012000000000000001,0.0026000000000000003,-0.0149,-0.015,0.17200000000000001,0.254
1701528255.875,19.609,19.609,-19.609,-0.0001,0.0,0.019,-0.003,0.22,0.155
1701528255.915,19.609,19.609,-19.609,-0.0028,0.0007,-0.0031000000000000003,0.052000000000000005,0.148,0.07200000000000001
1701528255.955,19.609,19.609,-19.609,-0.0015,0.0025,-0.0015,0.081,0.10200000000000001,0.001
1701528255.995,19.609,19.609,-19.609,-0.0006000000000000001,0.0023,-0.0083,0.045,0.109,-0.033
1701528256.0349998,19.609,19.609,-19.609,-0.0004,0.001,0.0054,-0.006,0.212,-0.08600000000000001
1701528256.075,19.609,19.609,-19.609,-0.0007,0.0045000000000000005,-0.0035,-0.019,0.198,-0.16
1701528256.115,19.609,19.609,-19.609,0.0008,0.0017000000000000001,-0.0103,-0.058,0.094,-0.193
1701528256.155,19.609,19.609,-19.609,-0.001,0.0027,-0.0218,-0.096,0.064,-0.201
1701528256.195,19.609,19.609,-19.609,-0.0009000000000000001,0.0018000000000000002,0.027600000000000003,-0.149,0.091,-0.15
1701528256.235,19.609,19.609,-19.609,0.0007,0.0036000000000000003,-0.0175,-0.139,0.078,-0.105
1701528256.2749999,19.609,19.609,-19.609,0.0022,0.001,0.0032,-0.089,0.05,-0.066
1701528256.315,19.609,19.609,-19.609,0.0001,0.0027,-0.014100000000000001,-0.062,0.044,-0.023
1701528256.355,19.609,19.609,-19.609,0.0013000000000000002,0.0014,0.0175,-0.005,0.10400000000000001,-0.01
1701528256.395,19.609,19.609,-19.609,0.0008,0.0043,-0.006200000000000001,0.061,0.145,-0.035
1701528256.435,19.609,19.609,-19.609,-0.0004,0.0025,-0.0081,0.08600000000000001,0.14200000000000002,-0.058
1701528256.475,19.609,19.609,-19.609,0.0017000000000000001,0.0037,-0.0013000000000000002,0.05,0.06,-0.048
1701528256.5149999,19.609,19.609,-19.609,0.0,0.003,-0.0007,0.027,0.029,-0.03
1701528256.555,19.609,19.609,-19.609,0.0026000000000000003,0.0025,-0.0058000000000000005,0.042,0.035,-0.037
1701528256.595,19.609,19.609,-19.609,0.0005,0.004,-0.008700000000000001,0.045,0.014,-0.059000000000000004
1701528256.635,19.609,19.609,-19.609,0.0,0.0023,0.0061,0.043000000000000003,-0.044,-0.058
1701528256.675,19.609,19.609,-19.609,-0.0016,0.0039000000000000003,-0.0117,0.045,-0.1,-0.055
1701528256.715,19.609,19.609,-19.609,0.0031000000000000003,0.0023,0.010400000000000001,0.014,-0.125,-0.052000000000000005
1701528256.7549999,19.609,19.609,-19.609,0.0021000000000000003,0.0012000000000000001,-0.0031000000000000003,-0.033,-0.181,-0.076
1701528256.795,19.609,19.609,-19.609,0.0012000000000000001,-0.0001,0.0025,-0.069,-0.216,-0.049
1701528256.835,19.609,19.609,-19.609,-0.0016,0.002,-0.006500000000000001,-0.089,-0.191,-0.075
1701528256.875,19.609,19.609,-19.609,0.0001,0.0023,-0.0073,-0.04,-0.156,-0.1
1701528256.915,19.609,19.609,-19.609,-0.0001,0.002,-0.0057,-0.036000000000000004,-0.168,-0.115
1701528256.955,19.609,19.609,-19.609,-0.001,0.0044,-0.011300000000000001,-0.027,-0.149,-0.114
1701528256.995,19.609,19.609,-19.609,-0.002,0.004200000000000001,0.0018000000000000002,-0.019,-0.17,-0.116
1701528257.035,19.609,19.609,-19.609,-0.0002,0.0016,-0.0112,-0.001,-0.137,-0.123
1701528257.075,19.609,19.609,-19.609,0.0001,0.0027,0.0098,0.026000000000000002,-0.164,-0.14200000000000002
1701528257.115,19.609,19.609,-19.609,-0.0012000000000000001,0.0025,-0.0018000000000000002,0.089,-0.14200000000000002,-0.192
1701528257.155,19.609,19.609,-19.609,0.0004,0.0014,-0.014100000000000001,0.082,-0.114,-0.265
1701528257.195,19.609,19.609,-19.609,-0.00030000000000000003,0.0064,0.0002,0.1,-0.11800000000000001,-0.315
1701528257.235,19.609,19.609,-19.609,0.0008,0.0016,-0.0001,0.12,-0.214,-0.326
1701528257.275,19.609,19.609,-19.609,-0.0024000000000000002,0.0037,-0.023100000000000002,0.075,-0.176,-0.28200000000000003
1701528257.315,19.609,19.609,-19.609,-0.0018000000000000002,0.0036000000000000003,0.0317,0.089,-0.169,-0.265
1701528257.355,19.609,19.609,-19.609,-0.001,0.0044,-0.0162,0.108,-0.13,-0.23600000000000002
1701528257.395,19.609,19.609,-19.609,0.002,0.0033,0.0006000000000000001,0.131,-0.171,-0.23700000000000002
1701528257.435,19.609,19.609,-19.609,0.0,0.004200000000000001,-0.0038,0.132,-0.199,-0.232
1701528257.475,19.609,19.609,-19.609,0.0012000000000000001,0.0019,0.0022,0.164,-0.265,-0.233
1701528257.515,19.609,19.609,-19.609,0.0012000000000000001,0.0037,0.0054,0.182,-0.158,-0.161
1701528257.555,19.609,19.609,-19.609,-0.0009000000000000001,0.0029000000000000002,-0.0048000000000000004,0.305,-0.12,-0.167
1701528257.595,19.609,19.609,-19.609,0.0032,0.0046,-0.010400000000000001,0.387,-0.17400000000000002,-0.202
1701528257.635,19.609,19.609,-19.609,0.001,0.0037,0.0059,0.321,-0.219,-0.221
1701528257.675,19.609,19.609,-19.609,-0.0001,0.0011,-0.0012000000000000001,0.07200000000000001,-0.187,-0.187
1701528257.715,19.609,19.609,-19.609,0.0023,0.0023,-0.0217,-0.029,-0.14300000000000002,-0.165
1701528257.755,19.609,19.609,-19.609,-0.0031000000000000003,0.0029000000000000002,0.024900000000000002,-0.052000000000000005,-0.154,-0.191
1701528257.795,19.609,19.609,-19.609,-0.0001,0.0043,-0.0067,-0.038,-0.18,-0.184
1701528257.835,19.609,19.609,-19.609,-0.0001,0.0037,-0.0171,0.002,-0.182,-0.167
1701528257.875,19.609,19.609,-19.609,0.0009000000000000001,0.003,0.0106,0.012,-0.13,-0.159
1701528257.915,19.609,19.609,-19.609,-0.0039000000000000003,0.0031000000000000003,-0.0223,-0.001,-0.091,-0.182
1701528257.955,19.609,19.609,-19.609,0.0,0.0016,0.0189,0.017,-0.049,-0.169
1701528257.995,19.609,19.609,-19.609,-0.0005,0.0035,0.0001,0.083,-0.003,-0.17500000000000002
1701528258.0349998,19.609,19.609,-19.609,-0.0009000000000000001,0.0024000000000000002,-0.006500000000000001,0.078,0.011,-0.159
1701528258.075,19.609,19.609,-19.609,0.0023,0.0029000000000000002,-0.0043,0.028,-0.029,-0.17200000000000001
1701528258.115,19.609,19.609,-19.609,0.0005,-0.00030000000000000003,0.0028,-0.024,-0.053,-0.161
1701528258.155,19.609,19.609,-19.609,-0.0023,0.0033,-0.0004,-0.036000000000000004,-0.111,-0.151
1701528258.195,19.609,19.609,-19.609,-0.0002,0.0036000000000000003,0.0001,-0.043000000000000003,-0.15,-0.122
1701528258.235,19.609,19.609,-19.609,0.0012000000000000001,0.0017000000000000001,-0.0043,-0.042,-0.17,-0.1
1701528258.2749999,19.609,19.609,-19.609,-0.0005,0.0015,-0.032100000000000004,-0.039,-0.126,-0.105
1701528258.315,19.609,19.609,-19.609,-0.0001,0.0031000000000000003,0.041,-0.101,-0.047,-0.078
1701528258.355,19.609,19.609,-19.609,0.0002,0.0043,-0.0094,-0.084,-0.011,-0.075
1701528258.395,19.609,19.609,-19.609,0.0012000000000000001,0.0043,-0.0103,-0.1,-0.061,-0.098
1701528258.435,19.609,19.609,-19.609,-0.0009000000000000001,0.0043,0.0086,-0.08700000000000001,-0.06,-0.109
1701528258.475,19.609,19.609,-19.609,0.0018000000000000002,0.0036000000000000003,-0.0039000000000000003,-0.08600000000000001,-0.019,-0.084
1701528258.5149999,19.609,19.609,-19.609,0.0,0.005,-0.0053,-0.078,-0.003,-0.083
1701528258.555,19.609,19.609,-19.609,0.0006000000000000001,0.0037,-0.0002,-0.052000000000000005,-0.01,-0.10200000000000001
1701528258.595,19.609,19.609,-19.609,0.00030000000000000003,0.0026000000000000003,0.0017000000000000001,0.007,-0.016,-0.127
1701528258.635,19.609,19.609,-19.609,0.0013000000000000002,0.004200000000000001,0.0031000000000000003,0.031,-0.027,-0.152
1701528258.675,19.609,19.609,-19.609,0.0005,0.001,0.0028,0.035,-0.069,-0.151
1701528258.715,19.609,19.609,-19.609,-0.0004,0.002,-0.042,0.017,-0.051000000000000004,-0.131
1701528258.7549999,19.609,19.609,-19.609,-0.00030000000000000003,0.0018000000000000002,0.0538,0.036000000000000004,-0.045,-0.111
1701528258.795,19.609,19.609,-19.609,0.0016,0.0041,-0.0195,0.031,-0.089,-0.125
1701528258.835,19.609,19.609,-19.609,0.0009000000000000001,0.002,-0.0024000000000000002,0.022,-0.068,-0.114
1701528258.875,19.609,19.609,-19.609,0.0006000000000000001,0.0019,-0.0006000000000000001,0.002,-0.052000000000000005,-0.10200000000000001
1701528258.915,19.609,19.609,-19.609,-0.00030000000000000003,0.0004,-0.007200000000000001,-0.006,-0.03,-0.091
1701528258.955,19.609,19.609,-19.609,0.0001,0.0032,0.0142,-0.01,-0.031,-0.094
1701528258.995,19.609,19.609,-19.609,-0.0004,0.0035,-0.0064,-0.026000000000000002,-0.045,-0.105
1701528259.035,19.609,19.609,-19.609,0.0001,0.0031000000000000003,-0.0149,-0.038,-0.048,-0.094
1701528259.075,19.609,19.609,-19.609,-0.0047,0.0012000000000000001,0.0055000000000000005,-0.025,-0.065,-0.093
1701528259.115,19.609,19.609,-19.609,0.0028,0.0041,-0.007200000000000001,-0.006,-0.067,-0.10400000000000001
1701528259.155,19.609,19.609,-19.609,0.0018000000000000002,0.0031000000000000003,-0.0067,0.017,-0.047,-0.114
1701528259.195,19.609,19.609,-19.609,0.0,0.0029000000000000002,-0.0222,0.013000000000000001,-0.038,-0.097
1701528259.235,19.609,19.609,-19.609,0.0001,0.0012000000000000001,0.028900000000000002,-0.002,-0.022,-0.10300000000000001
1701528259.275,19.609,19.609,-19.609,-0.0009000000000000001,0.0021000000000000003,-0.0098,0.014,-0.027,-0.092
1701528259.315,19.609,19.609,-19.609,-0.0002,0.0006000000000000001,-0.0067,0.03,-0.046,-0.106
1701528259.355,19.609,19.609,-19.609,-0.0006000000000000001,0.0032,-0.0076,0.023,-0.045,-0.101
1701528259.395,19.609,19.609,-19.609,-0.0006000000000000001,0.0039000000000000003,0.007500000000000001,0.013000000000000001,-0.049,-0.091
1701528259.435,19.609,19.609,-19.609,-0.002,0.0032,-0.0035,0.02,-0.059000000000000004,-0.094
1701528259.475,19.609,19.609,-19.609,0.002,0.0018000000000000002,-0.0081,0.015,-0.069,-0.097
1701528259.515,19.609,19.609,-19.609,-0.00030000000000000003,0.0059,0.0056,0.017,-0.058,-0.097
1701528259.555,19.609,19.609,-19.609,0.0021000000000000003,0.0025,-0.0023,0.01,-0.052000000000000005,-0.10300000000000001
1701528259.595,19.609,19.609,-19.609,0.0007,0.0039000000000000003,-0.0043,0.005,-0.047,-0.107
1701528259.635,19.609,19.609,-19.609,0.0027,0.0019,-0.016,0.018000000000000002,-0.068,-0.113
1701528259.675,19.609,19.609,-19.609,-0.0019,0.0028,-0.0173,0.011,-0.069,-0.10400000000000001
1701528259.715,19.609,19.609,-19.609,-0.0007,0.0043,-0.0212,0.005,-0.089,-0.127
1701528259.755,19.609,19.609,-19.609,-0.0004,0.0014,-0.0039000000000000003,-0.001,-0.096,-0.079
1701528259.795,19.609,19.609,-19.609,0.0009000000000000001,0.0012000000000000001,-0.0123,-0.043000000000000003,-0.096,-0.08600000000000001
1701528259.835,19.609,19.609,-19.609,-0.006200000000000001,0.0015,0.0028,-0.046,-0.095,-0.092
1701528259.875,19.609,19.609,-19.609,0.0004,0.001,-0.0043,-0.028,-0.10200000000000001,-0.11800000000000001
1701528259.915,19.609,19.609,-19.609,0.0009000000000000001,0.0019,-0.0143,-0.023,-0.117,-0.1
1701528259.955,19.609,19.609,-19.609,0.0004,0.0018000000000000002,0.001,-0.04,-0.127,-0.081
1701528259.995,19.609,19.609,-19.609,0.0021000000000000003,0.0015,0.007,-0.021,-0.125,-0.101
1701528260.0349998,19.609,19.609,-19.609,0.0,0.0036000000000000003,-0.0008,-0.015,-0.12,-0.1
1701528260.075,19.609,19.609,-19.609,-0.0011,0.004200000000000001,-0.0012000000000000001,0.004,-0.113,-0.096
1701528260.115,19.609,19.609,-19.609,-0.00030000000000000003,0.0001,0.0073,0.022,-0.145,-0.091
1701528260.155,19.609,19.609,-19.609,0.0,0.0027,-0.0045000000000000005,0.073,-0.117,-0.13
1701528260.195,19.609,19.609,-19.609,0.0025,0.0025,-0.0023,0.089,-0.058,-0.131
1701528260.235,19.609,19.609,-19.609,0.0,0.0031000000000000003,0.0018000000000000002,0.113,0.016,-0.166
1701528260.2749999,19.609,19.609,-19.609,-0.0002,0.0018000000000000002,-0.0051,0.109,0.047,-0.135
1701528260.315,19.609,19.609,-19.609,0.00030000000000000003,0.0023,0.0056,0.015,0.005,-0.093
1701528260.355,19.609,19.609,-19.609,-0.0025,0.0015,-0.0016,0.016,0.006,-0.073
1701528260.395,19.609,19.609,-19.609,0.0,0.0036000000000000003,-0.0171,0.0,0.0,-0.123
1701528260.435,19.609,19.609,-19.609,0.001,0.0025,0.006200000000000001,0.039,0.016,-0.117
1701528260.475,19.609,19.609,-19.609,-0.0025,0.0009000000000000001,0.0032,0.035,0.027,-0.116
1701528260.5149999,19.609,19.609,-19.609,-0.0026000000000000003,0.0012000000000000001,-0.0263,0.04,0.007,-0.105
1701528260.555,19.609,19.609,-19.609,0.0002,0.0036000000000000003,0.0252,0.029,-0.05,-0.09
1701528260.595,19.609,19.609,-19.609,-0.0015,0.0026000000000000003,-0.0014,0.026000000000000002,-0.036000000000000004,-0.08600000000000001
1701528260.635,19.609,19.609,-19.609,0.0023,0.0044,-0.0046,0.02,0.014,-0.091
1701528260.675,19.609,19.609,-19.609,-0.002,0.0031000000000000003,-0.0012000000000000001,-0.006,0.0,-0.047
1701528260.715,19.609,19.609,-19.609,0.0033,0.003,-0.0014,-0.001,-0.035,-0.06
1701528260.7549999,19.609,19.609,-19.609,-0.0008,0.002,-0.0024000000000000002,0.049,0.0,-0.1
1701528260.795,19.609,19.609,-19.609,0.001,0.0036000000000000003,0.0057,0.061,-0.042,-0.117
1701528260.835,19.609,19.609,-19.609,0.0004,0.0031000000000000003,-0.0006000000000000001,0.037,-0.042,-0.128
1701528260.875,19.609,19.609,-19.609,-0.0019,0.0009000000000000001,-0.028300000000000002,0.04,-0.028,-0.11
1701528260.915,19.609,19.609,-19.609,0.0001,0.0028,0.030000000000000002,0.013000000000000001,-0.07,-0.095
1701528260.955,19.609,19.609,-19.609,-0.0009000000000000001,0.0038,-0.015600000000000001,0.033,-0.044,-0.09
1701528260.995,19.609,19.609,-19.609,0.001,0.0023,-0.0045000000000000005,0.017,-0.099,-0.116
1701528261.035,19.609,19.609,-19.609,0.0025,0.0029000000000000002,-0.0067,-0.031,-0.107,-0.11
1701528261.075,19.609,19.609,-19.609,0.0005,0.0029000000000000002,-0.0025,-0.04,-0.094,-0.129
1701528261.115,19.609,19.609,-19.609,-0.0001,0.0005,0.0041,-0.076,-0.091,-0.089
1701528261.155,19.609,19.609,-19.609,0.0004,0.0028,-0.0021000000000000003,-0.099,-0.08,-0.049
1701528261.195,19.609,19.609,-19.609,-0.0026000000000000003,0.003,0.0046,-0.036000000000000004,-0.067,-0.08600000000000001
1701528261.235,19.609,19.609,-19.609,0.0001,0.0026000000000000003,-0.0131,0.053,-0.158,-0.099
1701528261.275,19.609,19.609,-19.609,0.0004,0.0029000000000000002,0.0145,0.131,-0.167,-0.093
1701528261.315,19.609,19.609,-19.609,-0.0007,0.0047,-0.0063,0.08600000000000001,-0.14,-0.033
1701528261.355,19.609,19.609,-19.609,-0.0026000000000000003,0.0024000000000000002,-0.0046,0.145,-0.125,-0.062
1701528261.395,19.609,19.609,-19.609,0.001,0.0019,-0.0015,0.203,-0.14200000000000002,-0.20600000000000002
1701528261.435,19.609,19.609,-19.609,0.00030000000000000003,0.0017000000000000001,-0.0106,0.129,-0.16,-0.165
1701528261.475,19.609,19.609,-19.609,0.0,0.002,-0.0106,0.088,-0.13,-0.05
1701528261.515,19.609,19.609,-19.609,-0.0007,0.0014,-0.0004,0.09,-0.209,0.04
1701528261.555,19.609,19.609,-19.609,-0.00030000000000000003,0.0038,-0.015300000000000001,0.05,-0.216,-0.099
1701528261.595,19.609,19.609,-19.609,0.0014,0.0023,0.0154,-0.008,-0.14300000000000002,-0.17300000000000001
1701528261.635,19.609,19.609,-19.609,-0.0046,0.0026000000000000003,-0.0021000000000000003,-0.1,-0.067,-0.07
1701528261.675,19.609,19.609,-19.609,0.00030000000000000003,0.0041,-0.0023,-0.07100000000000001,-0.004,-0.085
1701528261.715,19.609,19.609,-19.609,-0.0017000000000000001,0.0048000000000000004,-0.0134,0.002,0.018000000000000002,-0.152
1701528261.755,19.609,19.609,-19.609,0.0021000000000000003,0.0028,0.0012000000000000001,-0.066,0.017,-0.095
1701528261.795,19.609,19.609,-19.609,-0.0002,0.0024000000000000002,-0.0057,0.008,-0.021,-0.101
1701528261.835,19.609,19.609,-19.609,-0.0015,0.0022,0.0054,0.04,-0.073,-0.145
1701528261.875,19.609,19.609,-19.609,0.0004,0.0037,0.001,0.029,-0.066,-0.13
1701528261.915,19.609,19.609,-19.609,0.0012000000000000001,0.0044,-0.0098,0.014,-0.053,-0.14100000000000001
1701528261.955,19.609,19.609,-19.609,0.0023,0.004,-0.0048000000000000004,0.021,-0.045,-0.121
1701528261.995,19.609,19.609,-19.609,0.0009000000000000001,0.001,0.0066,0.016,-0.026000000000000002,-0.123
1701528262.0349998,19.609,19.609,-19.609,0.003,0.0024000000000000002,-0.0098,-0.006,-0.011,-0.108
1701528262.075,19.609,19.609,-19.609,-0.0032,0.0059,-0.0026000000000000003,0.005,-0.014,-0.111
1701528262.115,19.609,19.609,-19.609,0.00030000000000000003,0.0039000000000000003,0.020200000000000003,0.013000000000000001,-0.004,-0.131
1701528262.155,19.609,19.609,-19.609,0.0014,-0.00030000000000000003,0.0012000000000000001,0.023,-0.003,-0.146
1701528262.195,19.609,19.609,-19.609,0.0025,0.002,0.0004,0.032,-0.01,-0.129
1701528262.235,19.609,19.609,-19.609,-0.0009000000000000001,0.0046,-0.0081,0.027,-0.009000000000000001,-0.132
1701528262.2749999,19.609,19.609,-19.609,-0.0014,0.0014,0.0066,0.042,-0.018000000000000002,-0.159
1701528262.315,19.609,19.609,-19.609,-0.0001,0.0015,-0.0117,0.037,-0.021,-0.126
1701528262.355,19.609,19.609,-19.609,0.0007,0.0031000000000000003,-0.0005,0.023,-0.001,-0.106
1701528262.395,19.609,19.609,-19.609,-0.0013000000000000002,0.0024000000000000002,-0.0111,0.007,-0.01,-0.10200000000000001
1701528262.435,19.609,19.609,-19.609,0.0006000000000000001,0.002,0.0252,-0.007,-0.036000000000000004,-0.07200000000000001
1701528262.475,19.609,19.609,-19.609,-0.0012000000000000001,0.0017000000000000001,0.0064,0.017,-0.075,-0.107
1701528262.5149999,19.609,19.609,-19.609,0.0011,0.0021000000000000003,-0.0106,0.0,-0.042,-0.121
1701528262.555,19.609,19.609,-19.609,-0.00030000000000000003,0.0018000000000000002,-0.0007,-0.021,-0.025,-0.11
1701528262.595,19.609,19.609,-19.609,0.0039000000000000003,0.0031000000000000003,-0.0045000000000000005,-0.023,-0.031,-0.1
1701528262.635,19.609,19.609,-19.609,0.0017000000000000001,0.0015,-0.0056,-0.012,-0.019,-0.11800000000000001
1701528262.675,19.609,19.609,-19.609,-0.0015,0.0015,0.0017000000000000001,-0.062,-0.009000000000000001,-0.09
1701528262.715,19.609,19.609,-19.609,0.0006000000000000001,0.0014,-0.0037,-0.054,-0.002,-0.10400000000000001
1701528262.7549999,19.609,19.609,-19.609,-0.0007,0.0027,0.001,-0.04,-0.018000000000000002,-0.108
1701528262.795,19.609,19.609,-19.609,0.0,0.002,0.020300000000000002,-0.045,-0.02,-0.083
1701528262.835,19.609,19.609,-19.609,-0.0019,0.0013000000000000002,-0.0023,-0.051000000000000004,-0.031,-0.077
1701528262.875,19.609,19.609,-19.609,-0.0015,0.004,-0.0109,-0.01,-0.061,-0.111
1701528262.915,19.609,19.609,-19.609,0.0024000000000000002,0.004,0.0004,-0.002,-0.062,-0.10200000000000001
1701528262.955,19.609,19.609,-19.609,-0.0004,0.0,-0.006,-0.002,-0.066,-0.10200000000000001
1701528262.995,19.609,19.609,-19.609,0.0,0.0035,0.0007,-0.003,-0.068,-0.10400000000000001
1701528263.035,19.609,19.609,-19.609,-0.0026000000000000003,0.0018000000000000002,0.0012000000000000001,0.018000000000000002,-0.07200000000000001,-0.108
1701528263.075,19.609,19.609,-19.609,0.00030000000000000003,0.0019,0.0025,-0.007,-0.059000000000000004,-0.11900000000000001
1701528263.115,19.609,19.609,-19.609,0.0001,0.0025,-0.0122,-0.005,-0.043000000000000003,-0.078
1701528263.155,19.609,19.609,-19.609,0.0001,0.0021000000000000003,-0.014,0.007,-0.034,-0.117
1701528263.195,19.609,19.609,-19.609,-0.0016,0.0025,-0.013300000000000001,0.008,-0.065,-0.075
1701528263.235,19.609,19.609,-19.609,0.0015,0.0017000000000000001,-0.013600000000000001,-0.002,-0.03,-0.092
1701528263.275,19.609,19.609,-19.609,0.0009000000000000001,0.0036000000000000003,0.014,0.001,-0.058,-0.073
1701528263.315,19.609,19.609,-19.609,0.0031000000000000003,0.0036000000000000003,-0.0041,0.01,-0.074,-0.078
1701528263.355,19.609,19.609,-19.609,0.0017000000000000001,0.0031000000000000003,-0.0006000000000000001,-0.003,-0.07200000000000001,-0.075
1701528263.395,19.609,19.609,-19.609,0.0,0.0023,-0.0026000000000000003,-0.018000000000000002,-0.064,-0.07200000000000001
1701528263.435,19.609,19.609,-19.609,0.0006000000000000001,0.0016,-0.0011,-0.004,-0.063,-0.074
1701528263.475,19.609,19.609,-19.609,-0.0011,0.0036000000000000003,-0.002,0.005,-0.049,-0.083
1701528263.515,19.609,19.609,-19.609,-0.00030000000000000003,0.0028,-0.0026000000000000003,-0.02,-0.031,-0.093
1701528263.555,19.609,19.609,-19.609,0.0015,0.0031000000000000003,-0.0245,-0.03,-0.03,-0.085
1701528263.595,19.609,19.609,-19.609,0.0014,0.0029000000000000002,0.0122,-0.001,-0.052000000000000005,-0.106
1701528263.635,19.609,19.609,-19.609,0.0012000000000000001,0.0032,-0.009300000000000001,0.031,-0.061,-0.148
1701528263.675,19.609,19.609,-19.609,-0.00030000000000000003,0.0025,0.0017000000000000001,-0.036000000000000004,-0.067,-0.091
1701528263.715,19.609,19.609,-19.609,0.0012000000000000001,0.0033,-0.0059,-0.083,-0.07200000000000001,-0.056
1701528263.755,19.609,19.609,-19.609,0.0009000000000000001,0.0033,0.00030000000000000003,-0.058,-0.125,-0.11800000000000001
1701528263.795,19.609,19.609,-19.609,0.0018000000000000002,0.0019,0.0047,-0.057,-0.11800000000000001,-0.124
1701528263.835,19.609,19.609,-19.609,-0.0014,0.0,-0.0171,-0.12,-0.114,-0.074
1701528263.875,19.609,19.609,-19.609,-0.0006000000000000001,0.0012000000000000001,0.0004,-0.107,-0.127,-0.091
1701528263.915,19.609,19.609,-19.609,0.0004,0.0028,-0.0005,-0.131,-0.121,-0.06
1701528263.955,19.609,19.609,-19.609,0.0023,0.004,0.0031000000000000003,-0.08700000000000001,-0.10200000000000001,-0.037
1701528263.995,19.609,19.609,-19.609,-0.0021000000000000003,0.0023,-0.0079,0.0,-0.115,-0.092
1701528264.0349998,19.609,19.609,-19.609,-0.0016,0.0031000000000000003,-0.0019,-0.036000000000000004,-0.041,-0.075
1701528264.075,19.609,19.609,-19.609,0.0001,0.0035,0.0035,0.034,-0.07200000000000001,-0.113
1701528264.115,19.609,19.609,-19.609,0.0006000000000000001,0.0031000000000000003,-0.0016,0.051000000000000004,-0.093,-0.116
1701528264.155,19.609,19.609,-19.609,0.0012000000000000001,0.0026000000000000003,0.0079,0.025,-0.078,-0.116
1701528264.195,19.609,19.609,-19.609,-0.0018000000000000002,0.0029000000000000002,-0.015300000000000001,0.003,-0.06,-0.085
1701528264.235,19.609,19.609,-19.609,0.0004,0.0024000000000000002,0.013800000000000002,0.006,-0.061,-0.07
1701528264.2749999,19.609,19.609,-19.609,0.0014,0.0032,-0.0001,0.038,-0.038,-0.10300000000000001
1701528264.315,19.609,19.609,-19.609,0.0,0.0017000000000000001,0.0004,0.037,-0.035,-0.088
1701528264.355,19.609,19.609,-19.609,0.0024000000000000002,0.003,0.005,0.01,-0.039,-0.089
1701528264.395,19.609,19.609,-19.609,-0.0014,0.0037,-0.0046,0.039,-0.031,-0.10400000000000001
1701528264.435,19.609,19.609,-19.609,-0.0008,0.0029000000000000002,-0.007,0.019,-0.017,-0.093
1701528264.475,19.609,19.609,-19.609,0.0018000000000000002,0.0016,-0.0014,0.019,-0.037,-0.099
1701528264.5149999,19.609,19.609,-19.609,-0.0006000000000000001,0.0029000000000000002,0.00030000000000000003,0.012,-0.045,-0.127
1701528264.555,19.609,19.609,-19.609,0.0016,0.002,-0.0142,-0.002,-0.031,-0.11
1701528264.595,19.609,19.609,-19.609,-0.0001,0.0034000000000000002,0.0199,-0.027,-0.027,-0.094
1701528264.635,19.609,19.609,-19.609,0.0017000000000000001,0.0026000000000000003,-0.0054,-0.018000000000000002,-0.029,-0.10400000000000001
1701528264.675,19.609,19.609,-19.609,0.0009000000000000001,0.0046,-0.0031000000000000003,-0.018000000000000002,-0.03,-0.099
1701528264.715,19.609,19.609,-19.609,0.0032,0.0037,0.0,-0.027,-0.031,-0.10200000000000001
1701528264.7549999,19.609,19.609,-19.609,0.0,0.0026000000000000003,-0.001,-0.047,-0.019,-0.084
1701528264.795,19.609,19.609,-19.609,0.0022,0.0032,0.004,-0.015,-0.017,-0.093
1701528264.835,19.609,19.609,-19.609,-0.0012000000000000001,0.0027,-0.0036000000000000003,0.01,-0.023,-0.112
1701528264.875,19.609,19.609,-19.609,0.0028,0.0046,-0.0044,0.014,-0.026000000000000002,-0.10300000000000001
1701528264.915,19.609,19.609,-19.609,0.0013000000000000002,0.0039000000000000003,-0.0007,0.001,-0.017,-0.078
1701528264.955,19.609,19.609,-19.609,0.0009000000000000001,0.0053,-0.013900000000000001,0.016,-0.031,-0.096
1701528264.995,19.609,19.609,-19.609,-0.0022,0.003,-0.0126,0.032,-0.017,-0.122
1701528265.035,19.609,19.609,-19.609,0.0004,0.0025,-0.014400000000000001,0.014,-0.027,-0.084
1701528265.075,19.609,19.609,-19.609,-0.0001,0.0045000000000000005,0.0029000000000000002,0.059000000000000004,-0.044,-0.12
1701528265.115,19.609,19.609,-19.609,-0.001,0.0043,0.00030000000000000003,0.041,-0.069,-0.114
1701528265.155,19.609,19.609,-19.609,0.0016,0.0012000000000000001,-0.0061,0.012,-0.075,-0.109
1701528265.195,19.609,19.609,-19.609,0.001,0.004,-0.0034000000000000002,-0.018000000000000002,-0.064,-0.08600000000000001
1701528265.235,19.609,19.609,-19.609,-0.0015,0.004200000000000001,-0.0015,-0.039,-0.077,-0.083
1701528265.275,19.609,19.609,-19.609,-0.0017000000000000001,0.0022,-0.0015,-0.001,-0.048,-0.079
1701528265.315,19.609,19.609,-19.609,-0.0024000000000000002,0.0007,0.005,0.032,-0.062,-0.106
1701528265.355,19.609,19.609,-19.609,0.0008,0.0021000000000000003,-0.001,0.0,-0.06,-0.091
1701528265.395,19.609,19.609,-19.609,0.0,0.0025,-0.0028,-0.01,-0.047,-0.092
1701528265.435,19.609,19.609,-19.609,0.0,0.0034000000000000002,0.0036000000000000003,-0.001,-0.036000000000000004,-0.093
1701528265.475,19.609,19.609,-19.609,0.00030000000000000003,0.0026000000000000003,-0.0004,0.015,-0.034,-0.116
1701528265.515,19.609,19.609,-19.609,-0.0031000000000000003,0.0035,-0.0026000000000000003,0.01,-0.034,-0.117
1701528265.555,19.609,19.609,-19.609,0.0007,0.004200000000000001,-0.0009000000000000001,-0.005,-0.035,-0.109
1701528265.595,19.609,19.609,-19.609,-0.0004,0.0026000000000000003,-0.0019,-0.016,-0.03,-0.113
1701528265.635,19.609,19.609,-19.609,0.0016,0.0034000000000000002,-0.0041,-0.022,-0.022,-0.111
1701528265.675,19.609,19.609,-19.609,0.0012000000000000001,0.0039000000000000003,0.0018000000000000002,-0.012,-0.019,-0.096
1701528265.715,19.609,19.609,-19.609,-0.0009000000000000001,0.0046,0.0034000000000000002,0.012,-0.034,-0.124
1701528265.755,19.609,19.609,-19.609,-0.0006000000000000001,0.0015,-0.010700000000000001,-0.016,-0.024,-0.112
1701528265.795,19.609,19.609,-19.609,0.002,0.0039000000000000003,0.0048000000000000004,-0.051000000000000004,-0.017,-0.093
1701528265.835,19.609,19.609,-19.609,0.0022,-0.0004,-0.0029000000000000002,-0.031,-0.027,-0.10400000000000001
1701528265.875,19.609,19.609,-19.609,0.00030000000000000003,0.004,-0.008,-0.052000000000000005,-0.021,-0.11800000000000001
1701528265.915,19.609,19.609,-19.609,0.0013000000000000002,0.0023,-0.0067,-0.012,-0.04,-0.111
1701528265.955,19.609,19.609,-19.609,0.0015,0.0012000000000000001,0.0088,-0.031,-0.034,-0.112
1701528265.995,19.609,19.609,-19.609,0.0013000000000000002,0.0034000000000000002,-0.0395,-0.042,-0.033,-0.11
1701528266.0349998,19.609,19.609,-19.609,0.0,0.0018000000000000002,0.0424,-0.031,-0.031,-0.11
1701528266.075,19.609,19.609,-19.609,0.0021000000000000003,0.0026000000000000003,-0.0027,-0.006,-0.029,-0.11900000000000001
1701528266.115,19.609,19.609,-19.609,0.0,0.0015,-0.0034000000000000002,0.009000000000000001,-0.051000000000000004,-0.11900000000000001
1701528266.155,19.609,19.609,-19.609,0.0008,0.002,-0.006500000000000001,0.007,-0.048,-0.117
1701528266.195,19.609,19.609,-19.609,0.0,0.0018000000000000002,0.0011,-0.005,-0.024,-0.10200000000000001
1701528266.235,19.609,19.609,-19.609,-0.0001,0.0018000000000000002,0.0021000000000000003,-0.018000000000000002,-0.051000000000000004,-0.10400000000000001
1701528266.2749999,19.609,19.609,-19.609,0.0007,0.0035,-0.001,-0.025,-0.037,-0.11900000000000001
1701528266.315,19.609,19.609,-19.609,-0.0022,0.0023,-0.0056,-0.012,-0.04,-0.077
1701528266.355,19.609,19.609,-19.609,0.0001,0.0021000000000000003,-0.004200000000000001,-0.005,-0.046,-0.112
1701528266.395,19.609,19.609,-19.609,-0.0007,0.0032,0.0009000000000000001,-0.018000000000000002,-0.041,-0.112
1701528266.435,19.609,19.609,-19.609,0.0001,0.0028,-0.0016,-0.042,-0.045,-0.092
1701528266.475,19.609,19.609,-19.609,-0.0012000000000000001,0.0027,-0.0213,-0.039,-0.054,-0.105
1701528266.5149999,19.609,19.609,-19.609,0.0006000000000000001,0.0027,0.0165,-0.034,-0.051000000000000004,-0.09
1701528266.555,19.609,19.609,-19.609,0.0032,0.0008,0.0014,-0.026000000000000002,-0.065,-0.076
1701528266.595,19.609,19.609,-19.609,-0.001,0.0027,-0.0079,-0.036000000000000004,-0.085,-0.066
1701528266.635,19.609,19.609,-19.609,0.0025,0.0023,-0.0038,-0.064,-0.084,-0.079
1701528266.675,19.609,19.609,-19.609,-0.0002,0.002,-0.002,-0.066,-0.08600000000000001,-0.106
1701528266.715,19.609,19.609,-19.609,-0.0004,0.0023,-0.0148,-0.082,-0.074,-0.088
1701528266.7549999,19.609,19.609,-19.609,-0.0001,0.0021000000000000003,0.0028,-0.06,-0.067,-0.082
1701528266.795,19.609,19.609,-19.609,-0.0007,0.0032,0.0112,-0.037,-0.052000000000000005,-0.079
1701528266.835,19.609,19.609,-19.609,0.0004,0.0026000000000000003,0.0148,-0.022,-0.05,-0.095
1701528266.875,19.609,19.609,-19.609,-0.0001,0.0026000000000000003,-0.0095,-0.031,-0.062,-0.08
1701528266.915,19.609,19.609,-19.609,0.0006000000000000001,0.004200000000000001,0.004,-0.08,-0.067,-0.063
1701528266.955,19.609,19.609,-19.609,-0.0002,0.002,-0.0076,-0.092,-0.057,-0.039
1701528266.995,19.609,19.609,-19.609,-0.0005,0.0015,0.0,-0.113,-0.058,-0.034
1701528267.035,19.609,19.609,-19.609,0.0031000000000000003,0.0014,0.0025,-0.125,-0.061,-0.025
1701528267.075,19.609,19.609,-19.609,0.0004,0.0036000000000000003,-0.001,-0.148,-0.036000000000000004,-0.014
1701528267.115,19.609,19.609,-19.609,0.0038,0.0044,-0.00030000000000000003,-0.17200000000000001,-0.031,-0.012
1701528267.155,19.609,19.609,-19.609,0.0013000000000000002,0.0008,-0.0083,-0.154,-0.035,-0.017
1701528267.195,19.609,19.609,-19.609,0.0026000000000000003,0.0034000000000000002,-0.0021000000000000003,-0.148,-0.039,-0.012
1701528267.235,19.609,19.609,-19.609,0.0006000000000000001,0.0031000000000000003,0.0012000000000000001,-0.159,-0.033,0.003
1701528267.275,19.609,19.609,-19.609,0.0025,0.0046,-0.0008,-0.124,-0.077,-0.043000000000000003
1701528267.315,19.609,19.609,-19.609,0.0011,0.0017000000000000001,-0.0021000000000000003,-0.076,-0.1,-0.067
1701528267.355,19.609,19.609,-19.609,0.0004,0.0036000000000000003,-0.0028,-0.065,-0.055,-0.07200000000000001
1701528267.395,19.609,19.609,-19.609,0.0018000000000000002,0.0018000000000000002,-0.005,-0.04,-0.064,-0.10300000000000001
1701528267.435,19.609,19.609,-19.609,-0.0009000000000000001,0.0039000000000000003,-0.004200000000000001,-0.027,-0.067,-0.111
1701528267.475,19.609,19.609,-19.609,-0.00030000000000000003,0.0016,-0.001,-0.024,-0.039,-0.092
1701528267.515,19.609,19.609,-19.609,0.0011,0.0025,-0.0023,0.031,-0.063,-0.149
1701528267.555,19.609,19.609,-19.609,0.0022,0.0033,0.006900000000000001,0.093,-0.036000000000000004,-0.154
1701528267.595,19.609,19.609,-19.609,0.001,0.0006000000000000001,-0.0235,0.14400000000000002,-0.063,-0.169
1701528267.635,19.609,19.609,-19.609,0.0034000000000000002,0.0013000000000000002,0.032100000000000004,0.223,-0.075,-0.264
1701528267.675,19.609,19.609,-19.609,0.0001,0.0022,0.0027,0.274,-0.052000000000000005,-0.28700000000000003
1701528267.715,19.609,19.609,-19.609,0.0,0.003,-0.0067,0.291,-0.042,-0.247
1701528267.755,19.609,19.609,-19.609,-0.0017000000000000001,0.0035,-0.0036000000000000003,0.226,-0.019,-0.221
1701528267.795,19.609,19.609,-19.609,0.0025,0.0007,-0.0001,0.182,-0.024,-0.153
1701528267.835,19.609,19.609,-19.609,0.0013000000000000002,0.0023,-0.002,0.145,-0.02,-0.121
1701528267.875,19.609,19.609,-19.609,-0.0004,0.0035,-0.0051,0.145,-0.029,-0.11
1701528267.915,19.609,19.609,-19.609,-0.0004,0.0015,-0.004,0.14,-0.052000000000000005,-0.115
1701528267.955,19.609,19.609,-19.609,0.0007,0.0023,-0.0187,0.122,-0.025,-0.10300000000000001
1701528267.995,19.609,19.609,-19.609,-0.0001,0.0034000000000000002,0.0122,0.115,-0.025,-0.078
1701528268.0349998,19.609,19.609,-19.609,0.0026000000000000003,0.003,-0.0009000000000000001,0.08700000000000001,-0.019,-0.076
1701528268.075,19.609,19.609,-19.609,0.0021000000000000003,0.0035,0.0011,0.067,-0.007,-0.081
1701528268.115,19.609,19.609,-19.609,-0.0013000000000000002,-0.0013000000000000002,0.0012000000000000001,0.065,-0.013000000000000001,-0.108
1701528268.155,19.609,19.609,-19.609,0.0027,0.0041,0.007200000000000001,0.041,-0.029,-0.10400000000000001
1701528268.195,19.609,19.609,-19.609,-0.002,0.0035,0.0068000000000000005,0.058,-0.037,-0.07100000000000001
1701528268.235,19.609,19.609,-19.609,0.0006000000000000001,0.0023,-0.004200000000000001,0.031,-0.045,-0.068
1701528268.2749999,19.609,19.609,-19.609,0.0014,0.0032,-0.0041,0.036000000000000004,-0.029,-0.08600000000000001
1701528268.315,19.609,19.609,-19.609,-0.0008,0.0015,-0.0014,0.038,-0.03,-0.099
1701528268.355,19.609,19.609,-19.609,0.0007,0.0035,-0.0024000000000000002,0.011,-0.028,-0.093
1701528268.395,19.609,19.609,-19.609,0.0012000000000000001,0.004,-0.001,0.022,-0.022,-0.083
1701528268.435,19.609,19.609,-19.609,0.0,0.0026000000000000003,-0.0068000000000000005,0.015,-0.018000000000000002,-0.077
1701528268.475,19.609,19.609,-19.609,0.0022,0.0028,0.0012000000000000001,0.021,-0.017,-0.111
1701528268.5149999,19.609,19.609,-19.609,-0.0009000000000000001,0.0019,-0.0086,0.026000000000000002,-0.016,-0.113
1701528268.555,19.609,19.609,-19.609,-0.0006000000000000001,0.0035,-0.005,0.001,-0.038,-0.097
1701528268.595,19.609,19.609,-19.609,0.003,0.0045000000000000005,-0.0274,-0.02,-0.041,-0.095
1701528268.635,19.609,19.609,-19.609,0.0,0.0015,-0.0008,-0.028,-0.033,-0.10300000000000001
1701528268.675,19.609,19.609,-19.609,0.0015,0.0018000000000000002,-0.001,-0.027,-0.031,-0.097
1701528268.715,19.609,19.609,-19.609,-0.0012000000000000001,0.0019,0.004200000000000001,-0.013000000000000001,-0.031,-0.109
1701528268.7549999,19.609,19.609,-19.609,0.0009000000000000001,0.0019,-0.0029000000000000002,-0.033,-0.031,-0.122
1701528268.795,19.609,19.609,-19.609,0.0,0.0025,-0.0031000000000000003,-0.03,-0.018000000000000002,-0.08
1701528268.835,19.609,19.609,-19.609,-0.0014,0.001,-0.0043,-0.032,-0.022,-0.095
1701528268.875,19.609,19.609,-19.609,0.0035,0.0025,-0.0166,-0.035,-0.046,-0.11
1701528268.915,19.609,19.609,-19.609,-0.0015,0.0021000000000000003,0.0178,-0.032,-0.044,-0.113
1701528268.955,19.609,19.609,-19.609,0.0007,0.0031000000000000003,-0.0026000000000000003,-0.017,-0.035,-0.10400000000000001
1701528268.995,19.609,19.609,-19.609,-0.0014,0.004200000000000001,-0.0045000000000000005,-0.016,-0.042,-0.10200000000000001
1701528269.035,19.609,19.609,-19.609,0.0035,0.0035,0.0015,0.006,-0.055,-0.095
1701528269.075,19.609,19.609,-19.609,0.0018000000000000002,0.0046,-0.0013000000000000002,0.024,-0.055,-0.10400000000000001
1701528269.115,19.609,19.609,-19.609,-0.0001,0.0032,-0.0051,0.085,-0.079,-0.14
1701528269.155,19.609,19.609,-19.609,0.0009000000000000001,0.0016,0.0023,0.16,-0.106,-0.177
1701528269.195,19.609,19.609,-19.609,-0.0012000000000000001,0.0051,-0.0012000000000000001,0.455,-0.20400000000000001,-0.396
1701528269.235,19.609,19.609,-19.609,-0.0009000000000000001,0.001,-0.002,0.978,-0.354,-0.889
1701528269.275,19.609,19.609,-19.609,0.0001,0.001,0.0057,1.701,-0.436,-1.556
1701528269.315,19.609,19.609,-19.609,-0.0015,0.004,-0.0036000000000000003,2.009,-0.448,-1.742
1701528269.355,19.609,19.609,-19.609,0.0007,0.0015,-0.006200000000000001,1.979,-0.338,-1.418
1701528269.395,19.609,19.609,-19.609,-0.0009000000000000001,0.0023,-0.005200000000000001,1.553,-0.209,-1.0150000000000001
1701528269.435,19.609,19.609,-19.609,-0.0009000000000000001,0.0023,-0.0004,1.086,-0.025,-0.661
1701528269.475,19.609,19.609,-19.609,-0.0018000000000000002,0.0037,-0.0067,0.84,0.003,-0.451
1701528269.515,19.609,19.609,-19.609,0.0008,0.0019,0.0071,0.625,0.023,-0.247
1701528269.555,19.609,19.609,-19.609,0.0017000000000000001,0.0023,-0.0014,0.653,0.049,-0.247
1701528269.595,19.609,19.609,-19.609,0.0004,0.0016,0.0011,0.5690000000000001,0.083,-0.214
1701528269.635,19.609,19.609,-19.609,0.0004,0.0037,-0.0049,0.681,0.164,-0.324
1701528269.675,19.609,19.609,-19.609,0.0034000000000000002,0.0049,0.0026000000000000003,0.424,0.196,-0.263
1701528269.715,19.609,19.609,-19.609,0.0017000000000000001,0.002,0.0018000000000000002,0.125,0.187,-0.125
1701528269.755,19.609,19.609,-19.609,-0.0004,0.0022,-0.0039000000000000003,-0.269,0.209,0.169
1701528269.795,19.609,19.609,-19.609,0.0009000000000000001,0.0031000000000000003,-0.0043,-0.585,0.189,0.40900000000000003
1701528269.835,19.609,19.609,-19.609,-0.0018000000000000002,0.0043,-0.0022,-0.707,0.213,0.512
1701528269.875,19.609,19.609,-19.609,-0.0015,0.0031000000000000003,0.0001,-0.859,0.306,0.5760000000000001
1701528269.915,19.609,19.609,-19.609,-0.0008,0.0041,-0.0037,-0.85,0.324,0.509
1701528269.955,19.609,19.609,-19.609,-0.0007,0.0025,0.002,-0.872,0.28300000000000003,0.41500000000000004
1701528269.995,19.609,19.609,-19.609,0.0005,0.0041,-0.0064,-0.733,0.28500000000000003,0.338
1701528270.0349998,19.609,19.609,-19.609,0.0015,0.0016,-0.007200000000000001,-0.651,0.191,0.229
1701528270.075,19.609,19.609,-19.609,-0.0007,0.0026000000000000003,-0.0037,-0.561,0.179,0.211
1701528270.115,19.609,19.609,-19.609,0.0015,0.0023,0.0033,-0.557,0.114,0.188
1701528270.155,19.609,19.609,-19.609,0.0021000000000000003,0.0034000000000000002,-0.0055000000000000005,-0.532,0.126,0.179
1701528270.195,19.609,19.609,-19.609,0.0014,0.0046,0.001,-0.461,0.117,0.109
1701528270.235,19.609,19.609,-19.609,-0.001,0.004200000000000001,-0.0012000000000000001,-0.392,0.135,0.056
1701528270.2749999,19.609,19.609,-19.609,0.0015,0.0023,-0.007500000000000001,-0.355,0.106,-0.001
1701528270.315,19.609,19.609,-19.609,0.0037,0.0031000000000000003,0.0103,-0.334,0.1,-0.022
1701528270.355,19.609,19.609,-19.609,-0.0013000000000000002,0.0016,0.009000000000000001,-0.34600000000000003,0.065,-0.01
1701528270.395,19.609,19.609,-19.609,0.0015,0.0014,0.0017000000000000001,-0.358,0.04,0.026000000000000002
1701528270.435,19.609,19.609,-19.609,-0.0022,0.0004,-0.021400000000000002,-0.298,-0.001,0.056
1701528270.475,19.609,19.609,-19.609,0.0011,0.005,0.02,-0.267,0.0,0.065
1701528270.5149999,19.609,19.609,-19.609,-0.0009000000000000001,0.0044,0.0001,-0.213,-0.014,0.022
1701528270.555,19.609,19.609,-19.609,-0.004,0.0023,-0.0012000000000000001,-0.177,-0.013000000000000001,-0.029
1701528270.595,19.609,19.609,-19.609,-0.001,0.0032,-0.0143,-0.108,0.004,-0.065
1701528270.635,19.609,19.609,-19.609,-0.0014,0.0032,0.0019,-0.067,0.0,-0.105
1701528270.675,19.609,19.609,-19.609,-0.001,0.0027,-0.0006000000000000001,-0.043000000000000003,0.004,-0.083
1701528270.715,19.609,19.609,-19.609,-0.0012000000000000001,0.0037,-0.003,-0.051000000000000004,0.027,-0.082
1701528270.7549999,19.609,19.609,-19.609,0.0007,0.0001,-0.0038,-0.033,0.054,-0.109
1701528270.795,19.609,19.609,-19.609,0.0004,0.0009000000000000001,-0.0083,-0.03,0.064,-0.138
1701528270.835,19.609,19.609,-19.609,-0.0002,0.0021000000000000003,-0.001,-0.028,0.084,-0.14400000000000002
1701528270.875,19.609,19.609,-19.609,-0.0029000000000000002,0.0006000000000000001,-0.0034000000000000002,-0.028,0.109,-0.132
1701528270.915,19.609,19.609,-19.609,0.0005,0.003,0.00030000000000000003,-0.056,0.151,-0.085
1701528270.955,19.609,19.609,-19.609,0.0061,0.0022,-0.0134,-0.054,0.077,-0.077
1701528270.995,19.609,19.609,-19.609,-0.0001,0.0047,-0.0286,-0.044,0.011,-0.099
1701528271.035,19.609,19.609,-19.609,-0.0008,0.0036000000000000003,0.041100000000000005,-0.055,-0.037,-0.083
1701528271.075,19.609,19.609,-19.609,-0.0009000000000000001,0.004,-0.0012000000000000001,-0.07200000000000001,-0.055,-0.07100000000000001
1701528271.115,19.609,19.609,-19.609,0.0,0.0019,-0.009300000000000001,-0.075,-0.034,-0.063
1701528271.155,19.609,19.609,-19.609,-0.0014,0.0029000000000000002,-0.0039000000000000003,-0.045,0.0,-0.069
1701528271.195,19.609,19.609,-19.609,0.0026000000000000003,0.0027,-0.0176,-0.044,-0.029,-0.093
1701528271.235,19.609,19.609,-19.609,0.0006000000000000001,0.0029000000000000002,-0.0128,-0.03,-0.049,-0.108
1701528271.275,19.609,19.609,-19.609,0.0004,0.0051,0.009300000000000001,-0.057,-0.047,-0.08
1701528271.315,19.609,19.609,-19.609,0.002,0.0031000000000000003,0.0018000000000000002,-0.10400000000000001,-0.036000000000000004,-0.04
1701528271.355,19.609,19.609,-19.609,0.0022,0.0037,-0.0217,-0.105,-0.055,-0.039
1701528271.395,19.609,19.609,-19.609,0.0023,0.0031000000000000003,0.0257,-0.082,-0.061,-0.07100000000000001
1701528271.435,19.609,19.609,-19.609,-0.0002,0.0027,-0.0081,-0.094,-0.075,-0.10300000000000001
1701528271.475,19.609,19.609,-19.609,-0.0012000000000000001,0.0028,-0.0143,-0.124,-0.066,-0.092
1701528271.515,19.609,19.609,-19.609,0.001,0.0036000000000000003,-0.0103,-0.126,-0.018000000000000002,-0.08600000000000001
1701528271.555,19.609,19.609,-19.609,0.0,0.0048000000000000004,-0.0025,-0.09,-0.009000000000000001,-0.08
1701528271.595,19.609,19.609,-19.609,0.0017000000000000001,0.0018000000000000002,-0.0112,-0.049,-0.023,-0.10300000000000001
1701528271.635,19.609,19.609,-19.609,0.0006000000000000001,0.0013000000000000002,0.018600000000000002,-0.045,-0.052000000000000005,-0.113
1701528271.675,19.609,19.609,-19.609,-0.0015,0.0048000000000000004,-0.0014,-0.064,-0.026000000000000002,-0.111
1701528271.715,19.609,19.609,-19.609,-0.0012000000000000001,-0.0004,-0.006200000000000001,-0.063,-0.034,-0.10400000000000001
1701528271.755,19.609,19.609,-19.609,-0.0008,0.002,0.0013000000000000002,-0.057,-0.028,-0.097
1701528271.795,19.609,19.609,-19.609,0.0009000000000000001,0.0014,-0.0146,-0.063,-0.046,-0.097
1701528271.835,19.609,19.609,-19.609,0.0006000000000000001,0.0034000000000000002,0.0059,-0.08600000000000001,-0.048,-0.091
1701528271.875,19.609,19.609,-19.609,0.0048000000000000004,0.0026000000000000003,-0.0063,-0.091,-0.052000000000000005,-0.092
1701528271.915,19.609,19.609,-19.609,0.0029000000000000002,0.0001,0.0089,-0.089,-0.059000000000000004,-0.096
1701528271.955,19.609,19.609,-19.609,0.0002,0.0017000000000000001,-0.0011,-0.098,-0.057,-0.115
1701528271.995,19.609,19.609,-19.609,0.0036000000000000003,0.0015,-0.0089,-0.113,-0.057,-0.073
1701528272.0349998,19.609,19.609,-19.609,0.001,0.0028,0.0026000000000000003,-0.128,-0.058,-0.083
1701528272.075,19.609,19.609,-19.609,0.0028,0.0045000000000000005,-0.0379,-0.1,-0.053,-0.10400000000000001
1701528272.115,19.609,19.609,-19.609,-0.0018000000000000002,0.00030000000000000003,-0.0057,-0.079,-0.068,-0.125
1701528272.155,19.609,19.609,-19.609,-0.0012000000000000001,0.0031000000000000003,-0.0158,-0.065,-0.016,-0.106
1701528272.195,19.609,19.609,-19.609,-0.0017000000000000001,0.005,-0.018000000000000002,-0.04,-0.043000000000000003,-0.117
1701528272.235,19.609,19.609,-19.609,-0.0004,-0.0007,-0.0005,-0.026000000000000002,-0.04,-0.109
1701528272.2749999,19.609,19.609,-19.609,-0.0006000000000000001,0.0045000000000000005,-0.0142,-0.042,-0.051000000000000004,-0.101
1701528272.315,19.609,19.609,-19.609,0.0002,0.004,0.0252,-0.084,-0.061,-0.094
1701528272.355,19.609,19.609,-19.609,0.0011,0.0029000000000000002,-0.0031000000000000003,-0.081,-0.045,-0.10200000000000001
1701528272.395,19.609,19.609,-19.609,0.0034000000000000002,0.001,-0.0019,-0.047,-0.061,-0.11900000000000001
1701528272.435,19.609,19.609,-19.609,0.0022,0.0031000000000000003,-0.0036000000000000003,-0.065,-0.04,-0.098
1701528272.475,19.609,19.609,-19.609,0.0004,0.0037,-0.0164,-0.057,-0.051000000000000004,-0.098
1701528272.5149999,19.609,19.609,-19.609,0.0002,0.004,0.0092,-0.053,-0.066,-0.1
1701528272.555,19.609,19.609,-19.609,0.0004,0.0029000000000000002,-0.0004,-0.054,-0.068,-0.098
1701528272.595,19.609,19.609,-19.609,0.0021000000000000003,0.0016,-0.0048000000000000004,-0.055,-0.048,-0.08
1701528272.635,19.609,19.609,-19.609,-0.0016,0.0047,-0.0025,-0.075,-0.046,-0.085
1701528272.675,19.609,19.609,-19.609,-0.0011,0.0036000000000000003,0.0017000000000000001,-0.056,-0.056,-0.07100000000000001
1701528272.715,19.609,19.609,-19.609,-0.0016,0.0025,-0.0007,-0.036000000000000004,-0.042,-0.098
1701528272.7549999,19.609,19.609,-19.609,0.0007,0.0026000000000000003,-0.0058000000000000005,-0.032,-0.031,-0.10200000000000001
1701528272.795,19.609,19.609,-19.609,-0.0005,0.0021000000000000003,0.0037,-0.042,-0.047,-0.096
1701528272.835,19.609,19.609,-19.609,0.0006000000000000001,0.0029000000000000002,-0.0058000000000000005,-0.044,-0.055,-0.096
1701528272.875,19.609,19.609,-19.609,-0.0015,0.0012000000000000001,0.0018000000000000002,-0.045,-0.011,-0.084
1701528272.915,19.609,19.609,-19.609,-0.0006000000000000001,0.002,-0.0015,-0.026000000000000002,-0.085,-0.147
1701528272.955,19.609,19.609,-19.609,-0.0006000000000000001,0.0026000000000000003,-0.0046,-0.024,-0.088,-0.153
1701528272.995,19.609,19.609,-19.609,0.0008,0.0001,0.0046,-0.048,-0.132,-0.122
1701528273.035,19.609,19.609,-19.609,-0.0002,0.0023,0.0,-0.045,-0.151,-0.109
1701528273.075,19.609,19.609,-19.609,-0.0001,0.0012000000000000001,-0.017,-0.026000000000000002,-0.162,-0.14
1701528273.115,19.609,19.609,-19.609,0.0028,0.0018000000000000002,0.0159,-0.026000000000000002,-0.18,-0.133
1701528273.155,19.609,19.609,-19.609,0.0017000000000000001,0.0031000000000000003,-0.0122,-0.041,-0.14400000000000002,-0.134
1701528273.195,19.609,19.609,-19.609,-0.0001,0.004200000000000001,-0.0103,-0.044,-0.131,-0.134
1701528273.235,19.609,19.609,-19.609,0.00030000000000000003,0.0046,0.0009000000000000001,-0.05,-0.135,-0.113
1701528273.275,19.609,19.609,-19.609,0.0025,0.0034000000000000002,-0.0045000000000000005,-0.045,-0.10200000000000001,-0.109
1701528273.315,19.609,19.609,-19.609,0.0018000000000000002,0.004200000000000001,0.0001,-0.025,-0.085,-0.126
1701528273.355,19.609,19.609,-19.609,0.001,0.0021000000000000003,-0.012400000000000001,-0.017,-0.055,-0.081
1701528273.395,19.609,19.609,-19.609,0.0013000000000000002,0.002,0.018500000000000003,-0.012,-0.044,-0.1
1701528273.435,19.609,19.609,-19.609,0.0,0.0016,0.0068000000000000005,-0.005,-0.054,-0.11
1701528273.475,19.609,19.609,-19.609,-0.0001,0.0029000000000000002,-0.0067,-0.016,-0.052000000000000005,-0.08700000000000001
1701528273.515,19.609,19.609,-19.609,0.0,0.0012000000000000001,-0.0036000000000000003,-0.013000000000000001,-0.037,-0.08600000000000001
1701528273.555,19.609,19.609,-19.609,-0.0013000000000000002,0.0035,0.006900000000000001,0.004,-0.031,-0.098
1701528273.595,19.609,19.609,-19.609,0.0008,0.0027,-0.0012000000000000001,0.012,-0.039,-0.108
1701528273.635,19.609,19.609,-19.609,-0.0006000000000000001,0.0033,-0.0021000000000000003,0.01,-0.038,-0.109
1701528273.675,19.609,19.609,-19.609,-0.0021000000000000003,0.0006000000000000001,-0.0015,0.008,-0.046,-0.101
1701528273.715,19.609,19.609,-19.609,-0.00030000000000000003,0.004,-0.0006000000000000001,-0.003,-0.054,-0.106
1701528273.755,19.609,19.609,-19.609,0.0005,0.0021000000000000003,0.0019,0.0,-0.043000000000000003,-0.105
1701528273.795,19.609,19.609,-19.609,-0.0007,0.0034000000000000002,-0.00030000000000000003,-0.001,-0.045,-0.122
1701528273.835,19.609,19.609,-19.609,-0.00030000000000000003,0.0048000000000000004,-0.0002,0.016,-0.041,-0.128
1701528273.875,19.609,19.609,-19.609,0.0015,0.0051,-0.001,0.018000000000000002,-0.046,-0.127
1701528273.915,19.609,19.609,-19.609,0.0006000000000000001,0.0021000000000000003,-0.017,0.021,-0.075,-0.131
1701528273.955,19.609,19.609,-19.609,-0.0001,0.0015,0.0068000000000000005,0.027,-0.099,-0.127
1701528273.995,19.609,19.609,-19.609,-0.0004,0.0048000000000000004,0.0148,-0.009000000000000001,-0.089,-0.132
1701528274.0349998,19.609,19.609,-19.609,0.0012000000000000001,0.0048000000000000004,-0.009300000000000001,0.034,-0.016,-0.096
1701528274.075,19.609,19.609,-19.609,0.0018000000000000002,0.0021000000000000003,-0.0023,0.026000000000000002,0.027,-0.10400000000000001
1701528274.115,19.609,19.609,-19.609,0.0001,0.0064,-0.0088,0.009000000000000001,-0.005,-0.113
1701528274.155,19.609,19.609,-19.609,-0.0023,0.004200000000000001,0.002,-0.002,-0.06,-0.101
1701528274.195,19.609,19.609,-19.609,-0.0014,0.0036000000000000003,-0.0056,0.023,-0.1,-0.122
1701528274.235,19.609,19.609,-19.609,0.0001,0.0031000000000000003,-0.0066,0.053,-0.078,-0.125
1701528274.2749999,19.609,19.609,-19.609,-0.0012000000000000001,0.004200000000000001,-0.0055000000000000005,0.032,-0.041,-0.116
1701528274.315,19.609,19.609,-19.609,-0.0015,0.0012000000000000001,-0.0037,0.019,-0.022,-0.11800000000000001
1701528274.355,19.609,19.609,-19.609,0.0013000000000000002,0.0028,-0.0253,-0.013000000000000001,-0.022,-0.11900000000000001
1701528274.395,19.609,19.609,-19.609,-0.0008,0.0039000000000000003,0.0201,0.01,-0.044,-0.151
1701528274.435,19.609,19.609,-19.609,0.0001,0.0025,-0.004200000000000001,0.116,-0.041,-0.264
1701528274.475,19.609,19.609,-19.609,0.0004,0.0025,0.014700000000000001,0.307,-0.058,-0.553
1701528274.5149999,19.609,19.609,-19.609,-0.0005,0.0012000000000000001,-0.008400000000000001,0.525,-0.062,-0.797
1701528274.555,19.609,19.609,-19.609,0.005,0.0028,-0.0024000000000000002,0.547,-0.029,-0.777
1701528274.595,19.609,19.609,-19.609,0.0017000000000000001,0.0011,-0.0057,0.329,-0.044,-0.511
1701528274.635,19.609,19.609,-19.609,0.0001,0.0037,-0.0172,-0.057,-0.06,-0.07
1701528274.675,19.609,19.609,-19.609,0.0023,0.0026000000000000003,0.0205,-0.184,-0.019,0.037
1701528274.715,19.609,19.609,-19.609,-0.0004,0.004200000000000001,-0.0076,0.017,0.023,-0.094
1701528274.7549999,19.609,19.609,-19.609,0.0015,0.0017000000000000001,0.0038,0.18,-0.01,-0.233
1701528274.795,19.609,19.609,-19.609,0.0026000000000000003,0.0017000000000000001,0.0011,0.121,0.06,-0.188
1701528274.835,19.609,19.609,-19.609,0.0007,0.0028,-0.0051,-0.077,0.004,0.048
1701528274.875,19.609,19.609,-19.609,0.0,0.0018000000000000002,-0.010400000000000001,-0.17,0.024,0.111
1701528274.915,19.609,19.609,-19.609,0.0009000000000000001,0.0024000000000000002,0.0095,-0.031,0.04,-0.023
1701528274.955,19.609,19.609,-19.609,-0.0028,0.0015,-0.006900000000000001,0.089,0.127,-0.068
1701528274.995,19.609,19.609,-19.609,-0.002,0.0027,-0.006500000000000001,0.043000000000000003,0.15,-0.04
1701528275.035,19.609,19.609,-19.609,0.002,0.00030000000000000003,0.0056,-0.022,0.095,-0.033
1701528275.075,19.609,19.609,-19.609,0.0004,0.0028,-0.0059,-0.021,0.10300000000000001,-0.025
1701528275.115,19.609,19.609,-19.609,-0.0021000000000000003,0.0038,0.0017000000000000001,0.106,-0.006,-0.05
1701528275.155,19.609,19.609,-19.609,-0.0017000000000000001,0.0039000000000000003,-0.0073,0.227,-0.096,-0.14100000000000001
1701528275.195,19.609,19.609,-19.609,0.0,0.0037,-0.0004,0.196,-0.191,-0.15
1701528275.235,19.609,19.609,-19.609,-0.0014,0.0029000000000000002,-0.00030000000000000003,0.049,-0.20700000000000002,0.036000000000000004
1701528275.275,19.609,19.609,-19.609,-0.0006000000000000001,0.0012000000000000001,-0.007200000000000001,-0.007,-0.17300000000000001,0.049
1701528275.315,19.609,19.609,-19.609,0.0012000000000000001,0.0022,0.0001,-0.124,-0.112,-0.247
1701528275.355,19.609,19.609,-19.609,-0.00030000000000000003,0.0036000000000000003,-0.0045000000000000005,-0.271,-0.079,-0.28300000000000003
1701528275.395,19.609,19.609,-19.609,0.0011,0.00030000000000000003,-0.0036000000000000003,-0.054,-0.191,-0.193
1701528275.435,19.609,19.609,-19.609,0.0009000000000000001,0.0023,-0.0041,0.449,-0.124,0.085
1701528275.475,19.609,19.609,-19.609,-0.0007,-0.0002,0.0092,0.44,-0.024,0.193
1701528275.515,19.609,19.609,-19.609,0.0007,0.0034000000000000002,-0.0018000000000000002,-0.218,0.108,-0.355
1701528275.555,19.609,19.609,-19.609,0.0012000000000000001,0.0029000000000000002,0.0019,-0.485,-0.049,-0.34800000000000003
1701528275.595,19.609,19.609,-19.609,0.0011,0.0032,-0.0178,-0.021,-0.338,0.062
1701528275.635,19.609,19.609,-19.609,0.0017000000000000001,0.0027,0.0015,0.428,-0.251,0.044
1701528275.675,19.609,19.609,-19.609,-0.0007,0.0028,-0.0158,0.364,0.003,-0.217
1701528275.715,19.609,19.609,-19.609,-0.0014,0.0017000000000000001,-0.0002,-0.374,0.07200000000000001,-0.167
1701528275.755,19.609,19.609,-19.609,-0.0014,0.0023,-0.0187,-0.438,-0.109,0.057
1701528275.795,19.609,19.609,-19.609,-0.0006000000000000001,0.0024000000000000002,0.0034000000000000002,0.232,-0.245,0.009000000000000001
1701528275.835,19.609,19.609,-19.609,0.0005,0.0023,-0.0045000000000000005,0.388,-0.121,-0.054
1701528275.875,19.609,19.609,-19.609,0.0018000000000000002,0.0004,-0.00030000000000000003,0.065,-0.034,-0.146
1701528275.915,19.609,19.609,-19.609,0.0014,0.0017000000000000001,-0.0205,-0.179,-0.033,-0.131
1701528275.955,19.609,19.609,-19.609,-0.0014,0.00030000000000000003,0.027800000000000002,-0.019,-0.213,-0.058
1701528275.995,19.609,19.609,-19.609,0.00030000000000000003,0.0009000000000000001,-0.0071,0.322,-0.225,-0.073
1701528276.0349998,19.609,19.609,-19.609,0.0007,0.0038,-0.0064,0.28400000000000003,-0.199,-0.177
1701528276.075,19.609,19.609,-19.609,-0.0001,0.0023,-0.0034000000000000002,-0.062,-0.099,-0.089
1701528276.115,19.609,19.609,-19.609,0.00030000000000000003,0.0014,-0.0126,-0.149,-0.093,-0.023
1701528276.155,19.609,19.609,-19.609,0.0018000000000000002,0.0025,-0.0041,0.11800000000000001,-0.133,-0.058
1701528276.195,19.609,19.609,-19.609,0.0001,0.0006000000000000001,-0.012,0.387,-0.28,-0.115
1701528276.235,19.609,19.609,-19.609,0.0026000000000000003,0.0025,0.0095,0.17300000000000001,-0.296,-0.166
1701528276.2749999,19.609,19.609,-19.609,0.001,0.0024000000000000002,0.001,-0.133,-0.20800000000000002,-0.20800000000000002
1701528276.315,19.609,19.609,-19.609,-0.00030000000000000003,0.0024000000000000002,-0.0328,-0.25,-0.112,-0.029
1701528276.355,19.609,19.609,-19.609,-0.0006000000000000001,0.0012000000000000001,0.0335,0.068,-0.14,0.131
1701528276.395,19.609,19.609,-19.609,0.0026000000000000003,0.0031000000000000003,-0.008400000000000001,0.189,-0.137,0.001
1701528276.435,19.609,19.609,-19.609,0.0006000000000000001,0.0022,0.002,-0.10200000000000001,-0.281,-0.14400000000000002
1701528276.475,19.609,19.609,-19.609,0.0026000000000000003,0.0038,0.0013000000000000002,-0.497,-0.267,-0.063
1701528276.5149999,19.609,19.609,-19.609,0.0009000000000000001,0.0034000000000000002,0.0037,-0.435,-0.234,0.055
1701528276.555,19.609,19.609,-19.609,-0.0008,0.0015,0.0039000000000000003,-0.222,-0.251,0.013000000000000001
1701528276.595,19.609,19.609,-19.609,0.0017000000000000001,0.004,-0.0198,-0.08,-0.35000000000000003,-0.28400000000000003
1701528276.635,19.609,19.609,-19.609,0.0017000000000000001,0.0013000000000000002,-0.0034000000000000002,-0.304,-0.393,-0.317
1701528276.675,19.609,19.609,-19.609,-0.0006000000000000001,0.0036000000000000003,-0.0059,-0.34600000000000003,-0.375,-0.07100000000000001
1701528276.715,19.609,19.609,-19.609,-0.002,0.002,0.001,-0.216,-0.294,-0.028
1701528276.7549999,19.609,19.609,-19.609,0.006200000000000001,0.0,0.004200000000000001,-0.034,-0.129,-0.156
1701528276.795,19.609,19.609,-19.609,0.004,0.0022,0.0001,-0.031,-0.081,-0.2
1701528276.835,19.609,19.609,-19.609,0.0,0.0034000000000000002,-0.0029000000000000002,0.147,-0.039,-0.043000000000000003
1701528276.875,19.609,19.609,-19.609,0.0006000000000000001,0.002,-0.0045000000000000005,0.289,-0.078,-0.039
1701528276.915,19.609,19.609,-19.609,0.0006000000000000001,0.0018000000000000002,-0.009000000000000001,-0.04,-0.097,-0.255
1701528276.955,19.609,19.609,-19.609,-0.0005,0.002,0.0016,-0.459,0.008,-0.264
1701528276.995,19.609,19.609,-19.609,0.0023,0.0036000000000000003,-0.0036000000000000003,-0.353,-0.036000000000000004,-0.015
1701528277.035,19.609,19.609,-19.609,0.0021000000000000003,0.0015,-0.0029000000000000002,0.214,0.015,-0.117
1701528277.075,19.609,19.609,-19.609,-0.0013000000000000002,0.0023,0.0035,0.213,0.077,-0.218
1701528277.115,19.609,19.609,-19.609,-0.0013000000000000002,0.0025,-0.0014,-0.108,0.109,-0.14
1701528277.155,19.609,19.609,-19.609,0.0008,0.0039000000000000003,-0.0115,-0.327,0.132,-0.03
1701528277.195,19.609,19.609,-19.609,0.0,0.0023,0.0081,-0.179,0.062,-0.076
1701528277.235,19.609,19.609,-19.609,-0.0002,0.0044,-0.0019,-0.082,0.061,-0.17
1701528277.275,19.609,19.609,-19.609,-0.0038,0.0026000000000000003,-0.019100000000000002,-0.46,0.135,-0.304
1701528277.315,19.609,19.609,-19.609,-0.00030000000000000003,0.0024000000000000002,0.0068000000000000005,-0.713,0.217,-0.131
1701528277.355,19.609,19.609,-19.609,-0.0004,0.0025,-0.0043,-0.197,0.247,0.047
1701528277.395,19.609,19.609,-19.609,0.0004,0.0019,-0.00030000000000000003,0.11800000000000001,0.214,-0.024
1701528277.435,19.609,19.609,-19.609,0.0006000000000000001,0.004200000000000001,-0.0053,-0.057,0.213,-0.062
1701528277.475,19.609,19.609,-19.609,-0.0004,0.0051,0.0083,-0.26,0.221,-0.106
1701528277.515,19.609,19.609,-19.609,-0.0011,0.0041,-0.0206,-0.126,0.203,0.10200000000000001
1701528277.555,19.609,19.609,-19.609,0.002,0.0015,-0.0142,0.03,0.092,0.191
1701528277.595,19.609,19.609,-19.609,-0.0006000000000000001,0.0036000000000000003,-0.018600000000000002,-0.083,0.218,0.17500000000000002
1701528277.635,19.609,19.609,-19.609,0.0,0.001,0.004,-0.202,0.309,0.126
1701528277.675,19.609,19.609,-19.609,-0.00030000000000000003,0.0009000000000000001,-0.0114,-0.468,0.215,0.20400000000000001
1701528277.715,19.609,19.609,-19.609,-0.0001,0.0036000000000000003,0.0105,-0.359,0.062,0.335
1701528277.755,19.609,19.609,-19.609,0.0021000000000000003,0.0034000000000000002,-0.0028,-0.229,0.031,0.378
1701528277.795,19.609,19.609,-19.609,-0.0019,-0.0014,-0.009000000000000001,-0.261,0.157,0.289
1701528277.835,19.609,19.609,-19.609,0.0025,0.0024000000000000002,0.001,-0.40900000000000003,0.134,0.092
1701528277.875,19.609,19.609,-19.609,0.00030000000000000003,0.0032,-0.0054,-0.47900000000000004,0.035,0.132
1701528277.915,19.609,19.609,-19.609,-0.0017000000000000001,0.0044,-0.0071,-0.247,-0.151,0.188
1701528277.955,19.609,19.609,-19.609,0.0006000000000000001,0.0016,0.0037,-0.148,-0.078,0.195
1701528277.995,19.609,19.609,-19.609,0.0005,0.004,0.0035,-0.179,0.08700000000000001,0.115
1701528278.0349998,19.609,19.609,-19.609,0.0,0.004,-0.0028,-0.16,0.093,0.054
1701528278.075,19.609,19.609,-19.609,0.0006000000000000001,0.0015,-0.0028,-0.079,-0.053,-0.032
1701528278.115,19.609,19.609,-19.609,-0.0005,0.003,0.0098,0.029,-0.058,-0.084
1701528278.155,19.609,19.609,-19.609,0.0009000000000000001,0.0033,-0.005200000000000001,0.048,0.064,-0.043000000000000003
1701528278.195,19.609,19.609,-19.609,0.0,0.0023,-0.0014,0.114,0.11900000000000001,-0.038
1701528278.235,19.609,19.609,-19.609,0.0006000000000000001,0.0015,0.0017000000000000001,0.055,0.068,-0.084
1701528278.2749999,19.609,19.609,-19.609,0.0007,0.003,-0.004200000000000001,0.018000000000000002,0.042,-0.056
1701528278.315,19.609,19.609,-19.609,0.0036000000000000003,0.0029000000000000002,-0.0034000000000000002,0.068,-0.008,-0.037
1701528278.355,19.609,19.609,-19.609,0.0015,0.0009000000000000001,-0.0076,0.095,-0.027,0.011
1701528278.395,19.609,19.609,-19.609,0.00030000000000000003,0.0032,0.0103,0.126,-0.043000000000000003,-0.076
1701528278.435,19.609,19.609,-19.609,0.0029000000000000002,0.0057,-0.0018000000000000002,0.10300000000000001,-0.051000000000000004,-0.111
1701528278.475,19.609,19.609,-19.609,-0.0004,0.0023,0.0018000000000000002,0.078,-0.035,-0.07100000000000001
1701528278.5149999,19.609,19.609,-19.609,-0.0011,0.0039000000000000003,0.0028,0.009000000000000001,-0.098,-0.083
1701528278.555,19.609,19.609,-19.609,0.0005,0.0016,0.0057,-0.093,-0.146,-0.07200000000000001
1701528278.595,19.609,19.609,-19.609,-0.0007,0.0029000000000000002,-0.0038,-0.164,-0.115,-0.054
1701528278.635,19.609,19.609,-19.609,0.0017000000000000001,0.0025,-0.0066,-0.135,-0.09,-0.064
1701528278.675,19.609,19.609,-19.609,0.0019,0.0067,0.0023,-0.096,-0.028,-0.056
1701528278.715,19.609,19.609,-19.609,0.002,0.0048000000000000004,0.0012000000000000001,0.056,0.0,-0.146
1701528278.7549999,19.609,19.609,-19.609,-0.0004,0.0032,-0.0044,0.291,-0.027,-0.331
1701528278.795,19.609,19.609,-19.609,-0.001,0.004200000000000001,-0.0123,0.43,-0.052000000000000005,-0.368
1701528278.835,19.609,19.609,-19.609,-0.0007,0.0015,-0.0028,0.499,-0.051000000000000004,-0.325
1701528278.875,19.609,19.609,-19.609,0.0008,0.0024000000000000002,0.0039000000000000003,0.561,-0.052000000000000005,-0.353
1701528278.915,19.609,19.609,-19.609,0.0009000000000000001,0.0021000000000000003,-0.0014,0.491,-0.02,-0.3
1701528278.955,19.609,19.609,-19.609,-0.0018000000000000002,0.0011,-0.0012000000000000001,0.383,0.029,-0.2
1701528278.995,19.609,19.609,-19.609,0.002,0.0027,-0.0046,0.28,0.025,-0.127
1701528279.035,19.609,19.609,-19.609,0.0001,0.0038,-0.0048000000000000004,0.329,-0.036000000000000004,-0.181
1701528279.075,19.609,19.609,-19.609,0.0017000000000000001,0.0031000000000000003,-0.0004,0.337,-0.088,-0.221
1701528279.115,19.609,19.609,-19.609,0.0015,0.004,-0.0032,0.326,-0.10200000000000001,-0.203
1701528279.155,19.609,19.609,-19.609,-0.0005,0.0036000000000000003,-0.0001,0.343,-0.09,-0.231
1701528279.195,19.609,19.609,-19.609,-0.0009000000000000001,0.0038,0.00030000000000000003,0.317,-0.07200000000000001,-0.246
1701528279.235,19.609,19.609,-19.609,0.0001,0.0021000000000000003,-0.0059,0.225,-0.114,-0.195
1701528279.275,19.609,19.609,-19.609,0.0002,0.001,0.010100000000000001,0.20600000000000002,-0.01,-0.166
1701528279.315,19.609,19.609,-19.609,-0.001,0.0014,0.0023,0.227,0.021,-0.201
1701528279.355,19.609,19.609,-19.609,0.0012000000000000001,0.004200000000000001,-0.015300000000000001,0.212,0.015,-0.159
1701528279.395,19.609,19.609,-19.609,-0.0002,0.0041,-0.0021000000000000003,0.151,0.007,-0.15
1701528279.435,19.609,19.609,-19.609,0.0037,0.001,-0.0041,0.107,0.008,-0.093
1701528279.475,19.609,19.609,-19.609,0.0001,0.0028,-0.0023,0.063,0.0,-0.061
1701528279.515,19.609,19.609,-19.609,-0.0009000000000000001,0.0019,-0.0013000000000000002,0.161,-0.043000000000000003,-0.10400000000000001
1701528279.555,19.609,19.609,-19.609,-0.0004,0.002,0.002,0.19,-0.011,-0.082
1701528279.595,19.609,19.609,-19.609,0.0005,0.0033,-0.0061,0.218,-0.026000000000000002,-0.045
1701528279.635,19.609,19.609,-19.609,0.0012000000000000001,0.005,-0.014700000000000001,0.217,-0.046,-0.047
1701528279.675,19.609,19.609,-19.609,0.0,0.0015,0.019200000000000002,0.17200000000000001,-0.007,-0.055
1701528279.715,19.609,19.609,-19.609,0.001,0.0001,-0.0048000000000000004,0.069,0.055,-0.043000000000000003
1701528279.755,19.609,19.609,-19.609,-0.0021000000000000003,0.0031000000000000003,-0.005,0.025,0.062,-0.034
1701528279.795,19.609,19.609,-19.609,0.0012000000000000001,0.0048000000000000004,-0.0054,0.0,0.041,-0.007
1701528279.835,19.609,19.609,-19.609,0.0005,0.004,-0.0054,0.012,-0.001,-0.012
1701528279.875,19.609,19.609,-19.609,0.0,0.0008,-0.0029000000000000002,0.056,-0.021,-0.088
1701528279.915,19.609,19.609,-19.609,-0.0006000000000000001,0.0022,0.0027,-0.009000000000000001,-0.035,-0.089
1701528279.955,19.609,19.609,-19.609,0.0012000000000000001,0.0024000000000000002,-0.0008,-0.056,-0.061,-0.10200000000000001
1701528279.995,19.609,19.609,-19.609,0.0005,0.0026000000000000003,-0.0061,-0.091,-0.073,-0.093
1701528280.0349998,19.609,19.609,-19.609,-0.0017000000000000001,0.0031000000000000003,-0.0017000000000000001,-0.127,-0.081,-0.079
1701528280.075,19.609,19.609,-19.609,-0.0005,0.0029000000000000002,-0.0015,-0.121,-0.081,-0.10200000000000001
1701528280.115,19.609,19.609,-19.609,-0.0001,0.0025,0.005,-0.036000000000000004,-0.094,-0.148
1701528280.155,19.609,19.609,-19.609,-0.0012000000000000001,0.0049,-0.0064,-0.006,-0.135,-0.198
1701528280.195,19.609,19.609,-19.609,-0.0007,0.0014,-0.021400000000000002,-0.025,-0.146,-0.218
1701528280.235,19.609,19.609,-19.609,0.0019,0.0017000000000000001,0.0219,-0.024,-0.138,-0.202
1701528280.2749999,19.609,19.609,-19.609,-0.00030000000000000003,0.004,-0.0089,-0.033,-0.157,-0.20400000000000001
1701528280.315,19.609,19.609,-19.609,-0.0015,0.002,0.008,-0.012,-0.191,-0.222
1701528280.355,19.609,19.609,-19.609,-0.0009000000000000001,0.0029000000000000002,-0.0081,0.032,-0.183,-0.262
1701528280.395,19.609,19.609,-19.609,-0.0002,0.0031000000000000003,-0.0181,0.098,-0.14,-0.23600000000000002
1701528280.435,19.609,19.609,-19.609,-0.0005,0.0025,0.0129,0.069,-0.11900000000000001,-0.209
1701528280.475,19.609,19.609,-19.609,-0.001,0.005,-0.003,0.006,-0.089,-0.153
1701528280.5149999,19.609,19.609,-19.609,0.001,0.0017000000000000001,-0.016900000000000002,-0.02,-0.052000000000000005,-0.091
1701528280.555,19.609,19.609,-19.609,0.0014,0.0019,0.0102,-0.028,-0.025,-0.07100000000000001
1701528280.595,19.609,19.609,-19.609,0.0009000000000000001,0.0019,-0.0074,-0.01,-0.025,-0.074
1701528280.635,19.609,19.609,-19.609,-0.0038,0.0031000000000000003,-0.005200000000000001,0.026000000000000002,-0.024,-0.063
1701528280.675,19.609,19.609,-19.609,-0.0017000000000000001,0.0012000000000000001,-0.002,0.048,-0.039,-0.056
1701528280.715,19.609,19.609,-19.609,0.0002,0.0015,-0.0148,0.069,-0.024,-0.058
1701528280.7549999,19.609,19.609,-19.609,-0.0018000000000000002,0.0024000000000000002,0.0023,0.061,-0.031,-0.06
1701528280.795,19.609,19.609,-19.609,0.0019,0.0054,-0.0045000000000000005,0.062,-0.012,-0.05
1701528280.835,19.609,19.609,-19.609,0.0009000000000000001,0.0037,0.0056,0.067,-0.009000000000000001,-0.068
1701528280.875,19.609,19.609,-19.609,0.0017000000000000001,0.0007,-0.033800000000000004,0.07100000000000001,-0.011,-0.066
1701528280.915,19.609,19.609,-19.609,0.00030000000000000003,0.0023,0.0422,0.054,0.001,-0.066
1701528280.955,19.609,19.609,-19.609,0.0019,0.0039000000000000003,-0.001,0.033,-0.013000000000000001,-0.076
1701528280.995,19.609,19.609,-19.609,0.0012000000000000001,0.0026000000000000003,-0.0025,0.022,-0.007,-0.079
1701528281.035,19.609,19.609,-19.609,-0.0007,0.0033,-0.0183,0.0,0.007,-0.092
1701528281.075,19.609,19.609,-19.609,-0.0002,0.0034000000000000002,0.0045000000000000005,-0.013000000000000001,0.014,-0.1
1701528281.115,19.609,19.609,-19.609,0.0,0.006,-0.0162,-0.021,-0.001,-0.105
1701528281.155,19.609,19.609,-19.609,0.0015,0.005,-0.009300000000000001,-0.018000000000000002,-0.019,-0.107
1701528281.195,19.609,19.609,-19.609,0.0001,0.0034000000000000002,-0.0054,-0.032,-0.029,-0.121
1701528281.235,19.609,19.609,-19.609,0.0014,0.0028,0.0006000000000000001,-0.069,-0.056,-0.12
1701528281.275,19.609,19.609,-19.609,0.0026000000000000003,0.0046,-0.0001,-0.17400000000000002,-0.078,-0.089
1701528281.315,19.609,19.609,-19.609,0.00030000000000000003,0.0039000000000000003,0.0006000000000000001,-0.377,-0.097,-0.016
1701528281.355,19.609,19.609,-19.609,0.0014,0.0023,-0.0004,-0.481,-0.093,0.106
1701528281.395,19.609,19.609,-19.609,-0.0016,0.0015,0.0001,-0.353,-0.117,-0.009000000000000001
1701528281.435,19.609,19.609,-19.609,-0.0001,0.003,-0.0045000000000000005,-0.08,-0.075,-0.167
1701528281.475,19.609,19.609,-19.609,0.0,0.0016,0.0015,0.013000000000000001,-0.016,-0.16
1701528281.515,19.609,19.609,-19.609,0.0,0.0021000000000000003,-0.004,-0.045,0.117,-0.107
1701528281.555,19.609,19.609,-19.609,0.0,0.0043,-0.0017000000000000001,-0.075,0.25,-0.093
1701528281.595,19.609,19.609,-19.609,0.0008,0.0014,-0.0049,-0.014,0.317,-0.133
1701528281.635,19.609,19.609,-19.609,0.0006000000000000001,0.0026000000000000003,-0.0056,0.019,0.25,-0.16
1701528281.675,19.609,19.609,-19.609,0.0026000000000000003,0.0009000000000000001,0.0,0.056,0.23,-0.161
1701528281.715,19.609,19.609,-19.609,0.0008,0.0019,-0.0034000000000000002,0.041,0.18,-0.14200000000000002
1701528281.755,19.609,19.609,-19.609,0.00030000000000000003,0.0037,0.0013000000000000002,0.046,0.131,-0.116
1701528281.795,19.609,19.609,-19.609,0.0033,0.0014,-0.009300000000000001,0.012,0.021,-0.07100000000000001
1701528281.835,19.609,19.609,-19.609,0.0001,0.0037,-0.0054,0.02,-0.002,-0.085
1701528281.875,19.609,19.609,-19.609,-0.0004,0.0038,-0.002,-0.015,-0.07200000000000001,-0.11900000000000001
1701528281.915,19.609,19.609,-19.609,0.0004,0.001,-0.0376,-0.083,-0.067,-0.115
1701528281.955,19.609,19.609,-19.609,0.0004,0.0044,0.0413,-0.112,-0.083,-0.1
1701528281.995,19.609,19.609,-19.609,0.0028,0.0029000000000000002,-0.0111,-0.114,-0.111,-0.091
1701528282.0349998,19.609,19.609,-19.609,-0.0019,0.0014,-0.0009000000000000001,-0.067,-0.11900000000000001,-0.085
1701528282.075,19.609,19.609,-19.609,0.0017000000000000001,0.0045000000000000005,-0.002,-0.013000000000000001,-0.112,-0.063
1701528282.115,19.609,19.609,-19.609,0.0006000000000000001,0.0041,0.0005,-0.051000000000000004,-0.123,-0.03
1701528282.155,19.609,19.609,-19.609,0.0011,0.0048000000000000004,-0.0086,-0.1,-0.169,-0.018000000000000002
1701528282.195,19.609,19.609,-19.609,0.0012000000000000001,0.0025,-0.006500000000000001,-0.10300000000000001,-0.164,-0.105
1701528282.235,19.609,19.609,-19.609,0.0007,0.0023,0.0031000000000000003,-0.051000000000000004,-0.136,-0.155
1701528282.2749999,19.609,19.609,-19.609,-0.0006000000000000001,0.0008,-0.0019,-0.029,-0.094,-0.149
1701528282.315,19.609,19.609,-19.609,0.00030000000000000003,0.0032,-0.0058000000000000005,-0.02,-0.064,-0.129
1701528282.355,19.609,19.609,-19.609,0.0018000000000000002,0.001,0.0024000000000000002,-0.047,-0.065,-0.113
1701528282.395,19.609,19.609,-19.609,-0.0014,0.003,-0.0033,-0.078,-0.047,-0.117
1701528282.435,19.609,19.609,-19.609,-0.0007,0.0015,-0.01,-0.105,-0.025,-0.116
1701528282.475,19.609,19.609,-19.609,-0.0002,0.0012000000000000001,-0.0015,-0.122,0.0,-0.114
1701528282.5149999,19.609,19.609,-19.609,0.0005,0.0012000000000000001,-0.015000000000000001,-0.157,-0.002,-0.14300000000000002
1701528282.555,19.609,19.609,-19.609,0.0002,0.0033,0.033,-0.193,-0.005,-0.17
1701528282.595,19.609,19.609,-19.609,0.0017000000000000001,0.0032,-0.006200000000000001,-0.195,0.017,-0.158
1701528282.635,19.609,19.609,-19.609,-0.002,0.0036000000000000003,-0.0063,-0.163,0.009000000000000001,-0.159
1701528282.675,19.609,19.609,-19.609,-0.0004,0.0002,0.0,-0.148,0.007,-0.186
1701528282.715,19.609,19.609,-19.609,0.0008,0.0006000000000000001,-0.0013000000000000002,-0.128,0.017,-0.167
1701528282.7549999,19.609,19.609,-19.609,0.0005,0.0012000000000000001,-0.0028,-0.061,0.017,-0.162
1701528282.795,19.609,19.609,-19.609,-0.0015,0.0025,-0.002,-0.057,0.014,-0.127
1701528282.835,19.609,19.609,-19.609,-0.0021000000000000003,0.0034000000000000002,-0.006,-0.045,0.016,-0.113
1701528282.875,19.609,19.609,-19.609,-0.003,0.0023,0.004200000000000001,-0.027,0.002,-0.149
1701528282.915,19.609,19.609,-19.609,-0.001,0.0026000000000000003,-0.0109,-0.026000000000000002,-0.011,-0.138
1701528282.955,19.609,19.609,-19.609,-0.0005,0.0027,0.006,-0.037,-0.009000000000000001,-0.115
1701528282.995,19.609,19.609,-19.609,0.001,0.0017000000000000001,0.0023,-0.057,0.003,-0.093
1701528283.035,19.609,19.609,-19.609,-0.0014,0.0014,0.0023,-0.05,-0.022,-0.106
1701528283.075,19.609,19.609,-19.609,-0.0006000000000000001,0.0014,-0.0057,-0.021,-0.046,-0.14200000000000002
1701528283.115,19.609,19.609,-19.609,-0.0004,0.004,-0.0119,-0.038,-0.055,-0.11800000000000001
1701528283.155,19.609,19.609,-19.609,-0.0043,0.0002,0.0015,-0.064,-0.03,-0.088
1701528283.195,19.609,19.609,-19.609,0.0033,0.004200000000000001,-0.0103,-0.058,-0.034,-0.081
1701528283.235,19.609,19.609,-19.609,0.0001,0.0004,0.025500000000000002,0.001,-0.043000000000000003,-0.097
1701528283.275,19.609,19.609,-19.609,-0.0025,0.0031000000000000003,-0.0081,-0.006,-0.028,-0.09
1701528283.315,19.609,19.609,-19.609,0.0015,0.0031000000000000003,-0.0184,-0.006,-0.03,-0.089
1701528283.355,19.609,19.609,-19.609,0.00030000000000000003,0.0018000000000000002,0.0106,-0.005,-0.037,-0.097
1701528283.395,19.609,19.609,-19.609,0.0021000000000000003,0.0032,0.0015,-0.027,-0.04,-0.083
1701528283.435,19.609,19.609,-19.609,0.0015,0.0026000000000000003,-0.0013000000000000002,-0.013000000000000001,-0.046,-0.083
1701528283.475,19.609,19.609,-19.609,0.0,0.0018000000000000002,-0.0044,-0.021,-0.067,-0.106
1701528283.515,19.609,19.609,-19.609,-0.0007,0.0025,0.0023,0.014,-0.08600000000000001,-0.08
1701528283.555,19.609,19.609,-19.609,0.0001,0.0011,-0.0015,0.018000000000000002,-0.105,-0.117
1701528283.595,19.609,19.609,-19.609,0.0021000000000000003,0.005,-0.0019,0.017,-0.108,-0.151
1701528283.635,19.609,19.609,-19.609,-0.0009000000000000001,0.0035,0.004200000000000001,-0.002,-0.089,-0.133
1701528283.675,19.609,19.609,-19.609,-0.0006000000000000001,0.0033,-0.011600000000000001,-0.019,-0.082,-0.094
1701528283.715,19.609,19.609,-19.609,-0.0038,0.0032,0.0092,0.005,-0.099,-0.113
1701528283.755,19.609,19.609,-19.609,0.0033,0.0033,-0.0048000000000000004,0.003,-0.106,-0.133
1701528283.795,19.609,19.609,-19.609,0.0,0.003,0.0017000000000000001,-0.014,-0.11,-0.113
1701528283.835,19.609,19.609,-19.609,-0.0004,0.0043,-0.0018000000000000002,-0.013000000000000001,-0.117,-0.098
1701528283.875,19.609,19.609,-19.609,-0.001,0.0041,-0.0145,-0.007,-0.106,-0.109
1701528283.915,19.609,19.609,-19.609,0.0,0.0032,0.0151,-0.001,-0.096,-0.114
1701528283.955,19.609,19.609,-19.609,-0.0016,0.0007,0.0009000000000000001,0.013000000000000001,-0.094,-0.131
1701528283.995,19.609,19.609,-19.609,-0.0011,0.0032,-0.0045000000000000005,0.019,-0.08600000000000001,-0.131
1701528284.0349998,19.609,19.609,-19.609,0.0031000000000000003,0.0031000000000000003,-0.008700000000000001,0.026000000000000002,-0.089,-0.117
1701528284.075,19.609,19.609,-19.609,-0.0008,0.0045000000000000005,-0.0111,0.017,-0.062,-0.1
1701528284.115,19.609,19.609,-19.609,0.0009000000000000001,0.0012000000000000001,0.0015,-0.007,-0.06,-0.111
1701528284.155,19.609,19.609,-19.609,0.0001,0.0018000000000000002,-0.0001,-0.017,-0.03,-0.083
1701528284.195,19.609,19.609,-19.609,0.0014,0.0001,-0.001,-0.013000000000000001,-0.032,-0.083
1701528284.235,19.609,19.609,-19.609,0.0002,0.0012000000000000001,-0.0086,0.001,-0.045,-0.11800000000000001
1701528284.2749999,19.609,19.609,-19.609,-0.0007,0.0034000000000000002,0.008700000000000001,0.0,-0.052000000000000005,-0.091
1701528284.315,19.609,19.609,-19.609,0.0,0.0039000000000000003,-0.0054,-0.028,-0.042,-0.092
1701528284.355,19.609,19.609,-19.609,-0.0014,0.001,-0.006500000000000001,-0.052000000000000005,-0.051000000000000004,-0.083
1701528284.395,19.609,19.609,-19.609,0.0037,0.005,-0.005,-0.07,-0.061,-0.07200000000000001
1701528284.435,19.609,19.609,-19.609,-0.0015,0.0004,0.0053,-0.07,-0.067,-0.092
1701528284.475,19.609,19.609,-19.609,0.0008,0.0029000000000000002,-0.006500000000000001,-0.04,-0.081,-0.108
1701528284.5149999,19.609,19.609,-19.609,0.0004,0.0012000000000000001,0.010700000000000001,-0.022,-0.082,-0.113
1701528284.555,19.609,19.609,-19.609,-0.0004,0.002,-0.006500000000000001,-0.006,-0.082,-0.138
1701528284.595,19.609,19.609,-19.609,-0.0001,0.0043,-0.0056,0.03,-0.082,-0.168
1701528284.635,19.609,19.609,-19.609,0.00030000000000000003,0.0043,-0.0211,0.005,-0.09,-0.111
1701528284.675,19.609,19.609,-19.609,-0.0002,0.0026000000000000003,-0.009600000000000001,-0.007,-0.10300000000000001,-0.048
1701528284.715,19.609,19.609,-19.609,0.0031000000000000003,0.0025,-0.0015,0.029,-0.106,-0.07200000000000001
1701528284.7549999,19.609,19.609,-19.609,-0.0015,0.0031000000000000003,0.003,0.057,-0.107,-0.1
1701528284.795,19.609,19.609,-19.609,0.0,0.0033,-0.0041,0.048,-0.11900000000000001,-0.081
1701528284.835,19.609,19.609,-19.609,0.0006000000000000001,0.0006000000000000001,-0.0172,0.039,-0.10300000000000001,-0.051000000000000004
1701528284.875,19.609,19.609,-19.609,-0.0009000000000000001,0.0021000000000000003,-0.0007,0.043000000000000003,-0.113,-0.079
1701528284.915,19.609,19.609,-19.609,-0.0017000000000000001,0.004200000000000001,-0.0036000000000000003,0.03,-0.125,-0.062
1701528284.955,19.609,19.609,-19.609,-0.0007,0.0017000000000000001,-0.003,0.011,-0.127,-0.042
1701528284.995,19.609,19.609,-19.609,0.0001,0.0031000000000000003,-0.0025,0.032,-0.099,-0.08
1701528285.035,19.609,19.609,-19.609,0.0011,0.004,-0.0026000000000000003,0.033,-0.077,-0.094
1701528285.075,19.609,19.609,-19.609,-0.0009000000000000001,0.001,-0.009000000000000001,0.017,-0.06,-0.053
1701528285.115,19.609,19.609,-19.609,0.0002,0.0036000000000000003,0.0167,-0.037,-0.045,-0.022
1701528285.155,19.609,19.609,-19.609,-0.0006000000000000001,0.0034000000000000002,-0.008,-0.114,-0.07100000000000001,0.03
1701528285.195,19.609,19.609,-19.609,0.00030000000000000003,0.0026000000000000003,-0.0012000000000000001,-0.188,-0.092,0.099
1701528285.235,19.609,19.609,-19.609,0.0,0.0046,0.0001,-0.276,-0.106,0.17
1701528285.275,19.609,19.609,-19.609,0.0025,0.0007,-0.0001,-0.261,-0.077,0.11900000000000001
1701528285.315,19.609,19.609,-19.609,0.0014,0.0039000000000000003,-0.001,-0.202,-0.065,0.033
1701528285.355,19.609,19.609,-19.609,0.001,0.0029000000000000002,0.0012000000000000001,-0.153,-0.06,-0.012
1701528285.395,19.609,19.609,-19.609,-0.0002,0.0017000000000000001,0.0005,-0.07200000000000001,-0.052000000000000005,-0.065
1701528285.435,19.609,19.609,-19.609,0.0015,0.0027,-0.0079,-0.032,-0.044,-0.092
1701528285.475,19.609,19.609,-19.609,-0.0007,0.0031000000000000003,-0.0029000000000000002,-0.044,-0.002,-0.04
1701528285.515,19.609,19.609,-19.609,0.001,0.0019,-0.0015,-0.043000000000000003,-0.045,-0.002
1701528285.555,19.609,19.609,-19.609,0.0009000000000000001,0.0023,-0.0007,-0.088,-0.05,0.038
1701528285.595,19.609,19.609,-19.609,0.0013000000000000002,0.0031000000000000003,-0.0082,-0.11800000000000001,-0.079,0.057
1701528285.635,19.609,19.609,-19.609,0.0014,0.002,-0.0055000000000000005,-0.191,-0.07,0.112
1701528285.675,19.609,19.609,-19.609,0.0064,0.0057,-0.018600000000000002,-0.268,-0.111,0.193
1701528285.715,19.609,19.609,-19.609,0.0015,0.0056,0.028800000000000003,-0.317,-0.123,0.2
1701528285.755,19.609,19.609,-19.609,-0.0014,0.0016,-0.0079,-0.28600000000000003,-0.183,0.17500000000000002
1701528285.795,19.609,19.609,-19.609,-0.0015,0.0027,0.0012000000000000001,-0.362,-0.153,0.183
1701528285.835,19.609,19.609,-19.609,-0.0005,0.0015,-0.0078000000000000005,-0.369,-0.121,0.156
1701528285.875,19.609,19.609,-19.609,0.0002,0.0026000000000000003,-0.0055000000000000005,-0.341,-0.115,0.107
1701528285.915,19.609,19.609,-19.609,0.0014,0.0031000000000000003,-0.0024000000000000002,-0.194,-0.078,-0.004
1701528285.955,19.609,19.609,-19.609,0.0029000000000000002,0.004,-0.0018000000000000002,-0.08600000000000001,-0.042,-0.148
1701528285.995,19.609,19.609,-19.609,-0.0013000000000000002,0.0004,0.0007,-0.062,-0.028,-0.244
1701528286.0349998,19.609,19.609,-19.609,-0.0004,0.0032,-0.0048000000000000004,-0.056,-0.027,-0.251
1701528286.075,19.609,19.609,-19.609,0.0017000000000000001,0.0023,0.005,-0.099,-0.026000000000000002,-0.147
1701528286.115,19.609,19.609,-19.609,0.0004,0.0026000000000000003,-0.0043,-0.08,-0.029,-0.191
1701528286.155,19.609,19.609,-19.609,0.0015,0.0008,-0.0005,-0.053,-0.031,-0.193
1701528286.195,19.609,19.609,-19.609,0.0004,0.0031000000000000003,-0.0053,-0.053,-0.055,-0.169
1701528286.235,19.609,19.609,-19.609,0.0015,0.0015,-0.0038,-0.07100000000000001,-0.031,-0.14300000000000002
1701528286.2749999,19.609,19.609,-19.609,-0.0007,0.0021000000000000003,-0.0008,-0.054,-0.017,-0.127
1701528286.315,19.609,19.609,-19.609,0.0001,0.0023,0.0032,-0.04,-0.002,-0.122
1701528286.355,19.609,19.609,-19.609,0.004200000000000001,0.0023,-0.0048000000000000004,-0.039,0.003,-0.11800000000000001
1701528286.395,19.609,19.609,-19.609,0.0002,0.0029000000000000002,-0.020300000000000002,-0.034,0.023,-0.099
1701528286.435,19.609,19.609,-19.609,-0.0009000000000000001,0.0013000000000000002,-0.0229,-0.039,0.011,-0.097
1701528286.475,19.609,19.609,-19.609,0.0015,0.0015,-0.0032,-0.048,-0.039,-0.09
1701528286.5149999,19.609,19.609,-19.609,0.00030000000000000003,0.002,0.0118,-0.061,-0.075,-0.088
1701528286.555,19.609,19.609,-19.609,0.0029000000000000002,0.0031000000000000003,-0.0021000000000000003,-0.134,-0.08,-0.04
1701528286.595,19.609,19.609,-19.609,-0.0005,0.0008,-0.0015,-0.132,-0.034,-0.051000000000000004
1701528286.635,19.609,19.609,-19.609,0.00030000000000000003,0.0023,0.0022,-0.07200000000000001,-0.004,-0.11900000000000001
1701528286.675,19.609,19.609,-19.609,0.0004,0.0021000000000000003,0.0063,-0.027,-0.044,-0.14
1701528286.715,19.609,19.609,-19.609,-0.0002,0.0021000000000000003,-0.007200000000000001,-0.03,-0.045,-0.068
1701528286.7549999,19.609,19.609,-19.609,-0.0009000000000000001,0.0023,-0.0045000000000000005,-0.061,0.04,-0.032
1701528286.795,19.609,19.609,-19.609,0.0011,0.0025,-0.0001,-0.053,-0.032,-0.082
1701528286.835,19.609,19.609,-19.609,0.001,0.0,-0.003,-0.057,-0.001,-0.079
1701528286.875,19.609,19.609,-19.609,0.0021000000000000003,0.0031000000000000003,0.0035,-0.021,-0.004,-0.078
1701528286.915,19.609,19.609,-19.609,0.0026000000000000003,0.0025,-0.0013000000000000002,0.015,0.005,-0.11900000000000001
1701528286.955,19.609,19.609,-19.609,0.0045000000000000005,0.0021000000000000003,-0.0034000000000000002,-0.004,-0.096,-0.136
1701528286.995,19.609,19.609,-19.609,0.0018000000000000002,0.0046,-0.0001,-0.05,-0.027,-0.041
1701528287.035,19.609,19.609,-19.609,0.0,0.004,-0.007,-0.075,-0.014,-0.073
1701528287.075,19.609,19.609,-19.609,0.0,0.0031000000000000003,0.0057,-0.047,-0.01,-0.08600000000000001
1701528287.115,19.609,19.609,-19.609,-0.0004,0.0031000000000000003,-0.008,-0.036000000000000004,-0.037,-0.077
1701528287.155,19.609,19.609,-19.609,0.0019,0.0034000000000000002,-0.004,-0.052000000000000005,-0.019,-0.085
1701528287.195,19.609,19.609,-19.609,0.002,0.0023,0.0009000000000000001,-0.059000000000000004,-0.019,-0.07200000000000001
1701528287.235,19.609,19.609,-19.609,0.001,0.0013000000000000002,-0.0017000000000000001,-0.099,-0.028,-0.066
1701528287.275,19.609,19.609,-19.609,0.0007,0.0028,-0.0073,-0.127,-0.013000000000000001,-0.067
1701528287.315,19.609,19.609,-19.609,0.0021000000000000003,0.0009000000000000001,0.0026000000000000003,-0.125,-0.037,-0.051000000000000004
1701528287.355,19.609,19.609,-19.609,0.0008,0.0021000000000000003,-0.0054,-0.111,-0.033,-0.082
1701528287.395,19.609,19.609,-19.609,0.0,0.001,-0.0053,-0.079,-0.001,-0.083
1701528287.435,19.609,19.609,-19.609,-0.0008,0.002,0.0037,-0.056,-0.022,-0.10400000000000001
1701528287.475,19.609,19.609,-19.609,-0.0021000000000000003,0.0016,-0.0028,0.011,-0.043000000000000003,-0.151
1701528287.515,19.609,19.609,-19.609,0.0013000000000000002,0.0014,-0.0018000000000000002,0.014,-0.048,-0.156
1701528287.555,19.609,19.609,-19.609,-0.0024000000000000002,0.0026000000000000003,-0.0028,0.009000000000000001,-0.053,-0.134
