timestamp,acc_x,acc_y,acc_z,magn_x,magn_y,magn_z,gyro_x,gyro_y,gyro_z
1701526159.046,19.609,19.609,-19.609,0.001,-0.0007,0.046200000000000005,-0.047,-0.2,-0.059000000000000004
1701526159.086,19.609,19.609,-19.609,-0.0008,-0.0006000000000000001,-0.0054,-0.011,-0.24,-0.082
1701526159.126,19.609,19.609,-19.609,0.0,0.0014,-0.0111,0.056,-0.224,-0.125
1701526159.166,19.609,19.609,-19.609,-0.0009000000000000001,-0.0006000000000000001,0.010700000000000001,0.223,0.074,-0.043000000000000003
1701526159.206,19.609,19.609,-19.609,0.0007,0.0001,0.0025,0.132,-0.11800000000000001,-0.08600000000000001
1701526159.246,19.609,19.609,-19.609,-0.0018000000000000002,0.0013000000000000002,-0.0466,0.23,-0.077,-0.084
1701526159.286,19.609,19.609,-19.609,0.0032,0.0018000000000000002,0.0369,0.275,0.032,-0.189
1701526159.326,19.609,19.609,-19.609,-0.0011,0.0001,-0.031400000000000004,0.134,0.111,-0.20500000000000002
1701526159.366,19.609,19.609,-19.609,-0.0015,0.0005,0.00030000000000000003,-0.11800000000000001,0.293,-0.085
1701526159.406,19.609,19.609,-19.609,-0.0009000000000000001,-0.0012000000000000001,-0.0032,-0.106,0.28700000000000003,-0.08
1701526159.446,19.609,19.609,-19.609,0.0015,-0.0002,0.0162,-0.066,0.295,-0.088
1701526159.486,19.609,19.609,-19.609,-0.001,0.0,-0.045000000000000005,-0.096,0.299,-0.101
1701526159.526,19.609,19.609,-19.609,0.001,-0.0005,0.0318,-0.048,0.277,-0.136
1701526159.566,19.609,19.609,-19.609,0.0,-0.00030000000000000003,-0.0246,0.042,0.215,-0.149
1701526159.606,19.609,19.609,-19.609,-0.0006000000000000001,0.0006000000000000001,-0.0621,0.091,0.191,-0.134
1701526159.646,19.609,19.609,-19.609,-0.0006000000000000001,0.001,0.0765,0.092,0.184,-0.098
1701526159.686,19.609,19.609,-19.609,-0.0004,0.0017000000000000001,-0.0016,0.052000000000000005,0.155,-0.069
1701526159.726,19.609,19.609,-19.609,-0.0014,0.0005,-0.0281,0.025,0.08700000000000001,-0.068
1701526159.766,19.609,19.609,-19.609,-0.0009000000000000001,0.0006000000000000001,0.0204,-0.019,0.07200000000000001,-0.079
1701526159.806,19.609,19.609,-19.609,0.0007,-0.0005,-0.0374,-0.032,0.059000000000000004,-0.10400000000000001
1701526159.846,19.609,19.609,-19.609,-0.0048000000000000004,-0.0002,0.022000000000000002,-0.044,0.041,-0.114
1701526159.886,19.609,19.609,-19.609,-0.0014,0.0009000000000000001,0.006500000000000001,-0.015,0.025,-0.107
1701526159.926,19.609,19.609,-19.609,-0.0016,-0.0007,-0.0158,-0.001,0.012,-0.10200000000000001
1701526159.966,19.609,19.609,-19.609,-0.0011,0.0004,0.0059,-0.014,0.013000000000000001,-0.085
1701526160.006,19.609,19.609,-19.609,-0.0009000000000000001,0.0004,-0.037200000000000004,-0.016,0.017,-0.083
1701526160.046,19.609,19.609,-19.609,0.0018000000000000002,0.0021000000000000003,0.028300000000000002,0.023,0.012,-0.073
1701526160.086,19.609,19.609,-19.609,-0.00030000000000000003,0.00030000000000000003,-0.0166,0.045,0.0,-0.084
1701526160.126,19.609,19.609,-19.609,-0.0018000000000000002,-0.0004,-0.025,0.036000000000000004,0.007,-0.095
1701526160.166,19.609,19.609,-19.609,-0.0008,0.0017000000000000001,0.006200000000000001,0.021,-0.014,-0.113
1701526160.2059999,19.609,19.609,-19.609,-0.0001,-0.0006000000000000001,-0.026500000000000003,0.007,-0.021,-0.122
1701526160.246,19.609,19.609,-19.609,-0.0009000000000000001,0.0029000000000000002,0.040400000000000005,-0.01,-0.014,-0.124
1701526160.286,19.609,19.609,-19.609,0.0007,0.0012000000000000001,-0.010100000000000001,-0.036000000000000004,-0.016,-0.105
1701526160.326,19.609,19.609,-19.609,0.0,0.0025,-0.0059,-0.018000000000000002,-0.03,-0.098
1701526160.366,19.609,19.609,-19.609,0.0012000000000000001,-0.001,-0.0007,-0.023,-0.026000000000000002,-0.1
1701526160.406,19.609,19.609,-19.609,-0.0011,-0.0004,0.0001,-0.013000000000000001,-0.027,-0.094
1701526160.4459999,19.609,19.609,-19.609,0.0007,-0.0009000000000000001,-0.0461,-0.006,-0.041,-0.094
1701526160.486,19.609,19.609,-19.609,0.003,0.0001,0.0371,-0.019,-0.033,-0.09
1701526160.526,19.609,19.609,-19.609,0.0,-0.0002,-0.040400000000000005,0.018000000000000002,-0.042,-0.099
1701526160.566,19.609,19.609,-19.609,-0.0017000000000000001,0.0015,0.0458,-0.029,-0.032,-0.097
1701526160.606,19.609,19.609,-19.609,0.0,0.001,-0.0489,-0.024,-0.035,-0.106
1701526160.646,19.609,19.609,-19.609,-0.0015,0.0009000000000000001,0.033100000000000004,-0.009000000000000001,-0.052000000000000005,-0.12
1701526160.6859999,19.609,19.609,-19.609,-0.0009000000000000001,0.0006000000000000001,0.004200000000000001,-0.013000000000000001,-0.06,-0.126
1701526160.726,19.609,19.609,-19.609,-0.0002,0.0005,-0.022000000000000002,-0.023,-0.046,-0.127
1701526160.766,19.609,19.609,-19.609,0.0016,-0.0009000000000000001,0.0118,-0.017,-0.051000000000000004,-0.121
1701526160.806,19.609,19.609,-19.609,0.0017000000000000001,-0.0021000000000000003,-0.004200000000000001,-0.002,-0.042,-0.129
1701526160.846,19.609,19.609,-19.609,-0.0009000000000000001,0.001,-0.0004,-0.003,-0.046,-0.138
1701526160.886,19.609,19.609,-19.609,0.0,0.0018000000000000002,-0.034300000000000004,-0.006,-0.058,-0.11800000000000001
1701526160.9259999,19.609,19.609,-19.609,0.0007,0.0004,0.0224,-0.015,-0.034,-0.11900000000000001
1701526160.966,19.609,19.609,-19.609,0.0,0.0007,-0.026000000000000002,-0.022,-0.034,-0.112
1701526161.006,19.609,19.609,-19.609,0.0001,0.0013000000000000002,0.012,-0.016,-0.041,-0.101
1701526161.046,19.609,19.609,-19.609,-0.0014,-0.0009000000000000001,-0.00030000000000000003,-0.022,-0.028,-0.099
1701526161.086,19.609,19.609,-19.609,0.0006000000000000001,-0.0002,-0.039,-0.011,-0.016,-0.1
1701526161.126,19.609,19.609,-19.609,-0.0018000000000000002,-0.0007,0.033100000000000004,-0.007,-0.022,-0.10200000000000001
1701526161.166,19.609,19.609,-19.609,-0.0004,0.0011,-0.0392,-0.011,-0.028,-0.093
1701526161.206,19.609,19.609,-19.609,-0.0012000000000000001,-0.0024000000000000002,0.027800000000000002,-0.014,-0.025,-0.112
1701526161.246,19.609,19.609,-19.609,0.0015,-0.0019,-0.057100000000000005,-0.013000000000000001,-0.015,-0.111
1701526161.286,19.609,19.609,-19.609,-0.0002,0.0,0.049100000000000005,-0.015,-0.023,-0.105
1701526161.326,19.609,19.609,-19.609,-0.0009000000000000001,-0.0015,0.006200000000000001,0.0,-0.029,-0.10200000000000001
1701526161.366,19.609,19.609,-19.609,-0.0013000000000000002,0.0018000000000000002,-0.0396,0.015,-0.038,-0.105
1701526161.406,19.609,19.609,-19.609,0.0006000000000000001,0.00030000000000000003,0.018600000000000002,0.015,-0.047,-0.108
1701526161.446,19.609,19.609,-19.609,0.0007,0.0007,0.0004,0.016,-0.054,-0.101
1701526161.486,19.609,19.609,-19.609,0.001,-0.0005,-0.0499,0.024,-0.057,-0.105
1701526161.526,19.609,19.609,-19.609,-0.0004,-0.0007,0.0292,0.018000000000000002,-0.054,-0.115
1701526161.566,19.609,19.609,-19.609,-0.00030000000000000003,0.0009000000000000001,-0.0317,0.01,-0.057,-0.115
1701526161.606,19.609,19.609,-19.609,-0.0001,-0.0028,0.0302,0.01,-0.048,-0.11
1701526161.646,19.609,19.609,-19.609,-0.0012000000000000001,0.001,0.0014,0.008,-0.039,-0.115
1701526161.686,19.609,19.609,-19.609,0.0021000000000000003,0.0011,0.0413,0.009000000000000001,-0.047,-0.114
1701526161.726,19.609,19.609,-19.609,0.0002,-0.0005,-0.0505,0.005,-0.043000000000000003,-0.107
1701526161.766,19.609,19.609,-19.609,-0.0015,-0.00030000000000000003,0.0376,0.007,-0.037,-0.11
1701526161.806,19.609,19.609,-19.609,-0.0007,0.0009000000000000001,-0.0057,-0.001,-0.035,-0.105
1701526161.846,19.609,19.609,-19.609,-0.0034000000000000002,0.0,0.0006000000000000001,-0.002,-0.037,-0.10200000000000001
1701526161.886,19.609,19.609,-19.609,-0.0039000000000000003,-0.0006000000000000001,-0.019700000000000002,0.005,-0.035,-0.10400000000000001
1701526161.926,19.609,19.609,-19.609,0.00030000000000000003,0.0018000000000000002,0.0165,0.0,-0.033,-0.106
1701526161.966,19.609,19.609,-19.609,0.0001,-0.0001,-0.0333,0.005,-0.042,-0.10300000000000001
1701526162.006,19.609,19.609,-19.609,0.0014,-0.0021000000000000003,-0.0054,-0.01,-0.036000000000000004,-0.107
1701526162.046,19.609,19.609,-19.609,-0.0026000000000000003,0.0005,0.0219,0.003,-0.049,-0.116
1701526162.086,19.609,19.609,-19.609,0.0001,-0.00030000000000000003,-0.0017000000000000001,0.009000000000000001,-0.079,-0.113
1701526162.126,19.609,19.609,-19.609,-0.0005,0.0023,-0.0316,0.0,-0.056,-0.113
1701526162.166,19.609,19.609,-19.609,0.00030000000000000003,-0.0007,0.0205,0.005,-0.055,-0.092
1701526162.2059999,19.609,19.609,-19.609,0.0017000000000000001,0.0014,-0.0444,0.007,-0.04,-0.099
1701526162.246,19.609,19.609,-19.609,0.0014,0.0017000000000000001,0.0449,0.007,-0.025,-0.10300000000000001
1701526162.286,19.609,19.609,-19.609,-0.0012000000000000001,0.00030000000000000003,-0.0409,0.012,-0.037,-0.1
1701526162.326,19.609,19.609,-19.609,-0.0008,0.0009000000000000001,0.0307,0.01,-0.026000000000000002,-0.108
1701526162.366,19.609,19.609,-19.609,-0.0015,0.0,-0.0028,0.002,-0.033,-0.107
1701526162.406,19.609,19.609,-19.609,-0.002,0.0015,-0.0258,-0.003,-0.042,-0.109
1701526162.4459999,19.609,19.609,-19.609,0.0004,0.0004,0.017400000000000002,-0.009000000000000001,-0.042,-0.108
1701526162.486,19.609,19.609,-19.609,0.0,-0.0004,-0.026600000000000002,-0.015,-0.041,-0.108
1701526162.526,19.609,19.609,-19.609,0.0015,0.0014,0.0269,-0.005,-0.044,-0.111
1701526162.566,19.609,19.609,-19.609,-0.0014,-0.00030000000000000003,-0.033800000000000004,0.0,-0.055,-0.108
1701526162.606,19.609,19.609,-19.609,-0.0025,-0.0001,0.020800000000000003,0.039,-0.047,-0.113
1701526162.646,19.609,19.609,-19.609,0.00030000000000000003,0.0,-0.0455,0.001,-0.046,-0.113
1701526162.6859999,19.609,19.609,-19.609,0.0006000000000000001,0.0,0.0412,-0.007,-0.044,-0.115
1701526162.726,19.609,19.609,-19.609,-0.0012000000000000001,0.0004,-0.028,-0.014,-0.034,-0.116
1701526162.766,19.609,19.609,-19.609,-0.0007,0.002,0.0094,-0.006,-0.04,-0.111
1701526162.806,19.609,19.609,-19.609,0.0007,-0.0004,-0.0379,0.0,-0.041,-0.116
1701526162.846,19.609,19.609,-19.609,-0.0017000000000000001,0.0001,0.0427,-0.007,-0.043000000000000003,-0.123
1701526162.886,19.609,19.609,-19.609,0.0006000000000000001,0.00030000000000000003,-0.0279,-0.02,-0.038,-0.115
1701526162.9259999,19.609,19.609,-19.609,0.0006000000000000001,0.0021000000000000003,0.0167,-0.01,-0.046,-0.116
1701526162.966,19.609,19.609,-19.609,-0.00030000000000000003,-0.0018000000000000002,-0.007200000000000001,0.002,-0.044,-0.126
1701526163.006,19.609,19.609,-19.609,0.0004,0.0001,-0.0014,-0.013000000000000001,-0.054,-0.121
1701526163.046,19.609,19.609,-19.609,0.0001,-0.0012000000000000001,-0.042100000000000005,-0.019,-0.039,-0.115
1701526163.086,19.609,19.609,-19.609,0.0002,0.0001,0.036000000000000004,0.0,-0.035,-0.11900000000000001
1701526163.126,19.609,19.609,-19.609,-0.0023,0.00030000000000000003,-0.00030000000000000003,-0.005,-0.042,-0.122
1701526163.166,19.609,19.609,-19.609,0.0,0.0006000000000000001,-0.0476,-0.009000000000000001,-0.047,-0.111
1701526163.206,19.609,19.609,-19.609,-0.0024000000000000002,0.002,0.032,-0.003,-0.036000000000000004,-0.11900000000000001
1701526163.246,19.609,19.609,-19.609,-0.0013000000000000002,0.0017000000000000001,-0.0061,-0.008,-0.045,-0.114
1701526163.286,19.609,19.609,-19.609,0.0021000000000000003,0.0017000000000000001,-0.043500000000000004,-0.015,-0.048,-0.106
1701526163.326,19.609,19.609,-19.609,-0.0016,0.0012000000000000001,0.0303,0.0,-0.047,-0.114
1701526163.366,19.609,19.609,-19.609,-0.00030000000000000003,0.0015,-0.0279,0.003,-0.048,-0.122
1701526163.406,19.609,19.609,-19.609,0.001,-0.0005,-0.0424,-0.011,-0.043000000000000003,-0.115
1701526163.446,19.609,19.609,-19.609,-0.0004,-0.0005,0.0509,-0.004,-0.04,-0.111
1701526163.486,19.609,19.609,-19.609,-0.0001,0.0004,-0.0291,-0.004,-0.039,-0.113
1701526163.526,19.609,19.609,-19.609,-0.0001,0.0,-0.07970000000000001,-0.002,-0.046,-0.114
1701526163.566,19.609,19.609,-19.609,-0.003,-0.00030000000000000003,0.0482,-0.001,-0.051000000000000004,-0.11800000000000001
1701526163.606,19.609,19.609,-19.609,-0.0021000000000000003,-0.0016,-0.041800000000000004,-0.009000000000000001,-0.044,-0.122
1701526163.646,19.609,19.609,-19.609,-0.0009000000000000001,0.0015,0.0381,-0.007,-0.04,-0.108
1701526163.686,19.609,19.609,-19.609,0.0013000000000000002,-0.0005,-0.0001,0.007,-0.037,-0.115
1701526163.726,19.609,19.609,-19.609,-0.0014,-0.0001,-0.007,0.002,-0.048,-0.122
1701526163.766,19.609,19.609,-19.609,-0.0035,-0.0015,-0.0383,-0.015,-0.037,-0.11900000000000001
1701526163.806,19.609,19.609,-19.609,-0.0002,0.0002,0.0398,-0.016,-0.034,-0.121
1701526163.846,19.609,19.609,-19.609,-0.0008,-0.0009000000000000001,-0.0158,-0.004,-0.041,-0.122
1701526163.886,19.609,19.609,-19.609,-0.0004,-0.0006000000000000001,0.0033,-0.01,-0.036000000000000004,-0.11900000000000001
1701526163.926,19.609,19.609,-19.609,0.0038,0.004200000000000001,-0.0007,-0.007,-0.043000000000000003,-0.114
1701526163.966,19.609,19.609,-19.609,0.0007,0.0004,-0.035,-0.007,-0.042,-0.127
1701526164.006,19.609,19.609,-19.609,0.0,0.0004,0.027700000000000002,-0.007,-0.043000000000000003,-0.116
1701526164.046,19.609,19.609,-19.609,-0.0019,0.002,-0.028800000000000003,0.003,-0.053,-0.114
1701526164.086,19.609,19.609,-19.609,-0.0006000000000000001,-0.00030000000000000003,0.027200000000000002,0.007,-0.049,-0.116
1701526164.126,19.609,19.609,-19.609,-0.0023,-0.0007,-0.0166,-0.05,-0.045,-0.115
1701526164.166,19.609,19.609,-19.609,-0.0012000000000000001,0.0015,0.0219,0.001,-0.052000000000000005,-0.11900000000000001
1701526164.2059999,19.609,19.609,-19.609,0.0001,-0.001,-0.050100000000000006,0.001,-0.045,-0.12
1701526164.246,19.609,19.609,-19.609,-0.0011,0.00030000000000000003,0.040100000000000004,-0.001,-0.047,-0.113
1701526164.286,19.609,19.609,-19.609,0.0006000000000000001,0.0021000000000000003,-0.019,-0.001,-0.05,-0.116
1701526164.326,19.609,19.609,-19.609,-0.0021000000000000003,-0.0007,0.0049,0.01,-0.053,-0.114
1701526164.366,19.609,19.609,-19.609,-0.0028,-0.0017000000000000001,-0.050100000000000006,-0.009000000000000001,-0.062,-0.11900000000000001
1701526164.406,19.609,19.609,-19.609,-0.0021000000000000003,0.0006000000000000001,0.0424,-0.004,-0.034,-0.10300000000000001
1701526164.4459999,19.609,19.609,-19.609,-0.0009000000000000001,0.0004,-0.0024000000000000002,0.012,-0.047,-0.109
1701526164.486,19.609,19.609,-19.609,0.0015,0.0017000000000000001,-0.0385,0.016,-0.052000000000000005,-0.123
1701526164.526,19.609,19.609,-19.609,-0.0006000000000000001,0.0006000000000000001,0.0129,-0.012,-0.045,-0.106
1701526164.566,19.609,19.609,-19.609,-0.0017000000000000001,-0.0009000000000000001,0.0034000000000000002,-0.009000000000000001,-0.036000000000000004,-0.117
1701526164.606,19.609,19.609,-19.609,-0.001,0.002,0.0233,0.008,-0.049,-0.12
1701526164.646,19.609,19.609,-19.609,0.0,0.0001,-0.0385,0.002,-0.08,-0.106
1701526164.6859999,19.609,19.609,-19.609,-0.0001,0.0001,0.029900000000000003,-0.017,-0.044,-0.10200000000000001
1701526164.726,19.609,19.609,-19.609,-0.0009000000000000001,0.00030000000000000003,0.0064,0.014,-0.038,-0.111
1701526164.766,19.609,19.609,-19.609,0.0014,0.0011,-0.031900000000000005,0.003,-0.039,-0.10200000000000001
1701526164.806,19.609,19.609,-19.609,-0.00030000000000000003,-0.0006000000000000001,0.015600000000000001,0.017,-0.047,-0.10300000000000001
1701526164.846,19.609,19.609,-19.609,0.001,0.0006000000000000001,-0.0135,0.008,-0.045,-0.107
1701526164.886,19.609,19.609,-19.609,-0.0001,-0.0004,-0.0032,0.004,-0.042,-0.109
1701526164.9259999,19.609,19.609,-19.609,0.00030000000000000003,0.0017000000000000001,-0.009300000000000001,0.013000000000000001,-0.035,-0.101
1701526164.966,19.609,19.609,-19.609,-0.0021000000000000003,0.0014,0.0183,0.013000000000000001,-0.036000000000000004,-0.098
1701526165.006,19.609,19.609,-19.609,0.00030000000000000003,-0.0006000000000000001,-0.0051,0.008,-0.035,-0.10300000000000001
1701526165.046,19.609,19.609,-19.609,0.002,0.0017000000000000001,-0.0572,0.004,-0.036000000000000004,-0.109
1701526165.086,19.609,19.609,-19.609,-0.0025,-0.0009000000000000001,0.049,-0.006,-0.046,-0.111
1701526165.126,19.609,19.609,-19.609,-0.0007,0.0,-0.0253,-0.004,-0.039,-0.114
1701526165.166,19.609,19.609,-19.609,-0.0006000000000000001,-0.0011,0.013000000000000001,0.007,-0.024,-0.107
1701526165.206,19.609,19.609,-19.609,0.0018000000000000002,0.0018000000000000002,0.0064,0.013000000000000001,-0.029,-0.107
1701526165.246,19.609,19.609,-19.609,-0.0027,0.002,-0.0429,0.003,-0.039,-0.12
1701526165.286,19.609,19.609,-19.609,-0.0012000000000000001,0.0,0.031100000000000003,0.016,-0.054,-0.111
1701526165.326,19.609,19.609,-19.609,-0.002,0.0008,-0.0126,0.002,-0.046,-0.112
1701526165.366,19.609,19.609,-19.609,-0.002,-0.00030000000000000003,-0.015600000000000001,0.0,-0.051000000000000004,-0.109
1701526165.406,19.609,19.609,-19.609,-0.0038,-0.0005,0.0223,0.009000000000000001,-0.04,-0.1
1701526165.446,19.609,19.609,-19.609,0.0009000000000000001,0.0011,-0.049800000000000004,0.016,-0.018000000000000002,-0.093
1701526165.486,19.609,19.609,-19.609,0.001,0.0,0.034300000000000004,0.02,-0.007,-0.091
1701526165.526,19.609,19.609,-19.609,-0.0014,-0.0001,-0.0374,0.036000000000000004,-0.01,-0.085
1701526165.566,19.609,19.609,-19.609,0.0002,0.0022,0.0274,0.043000000000000003,-0.004,-0.068
1701526165.606,19.609,19.609,-19.609,-0.0004,0.0017000000000000001,-0.0492,0.082,0.003,-0.056
1701526165.646,19.609,19.609,-19.609,0.00030000000000000003,0.0023,0.0366,0.106,-0.01,-0.069
1701526165.686,19.609,19.609,-19.609,0.0,-0.00030000000000000003,-0.0019,0.084,-0.036000000000000004,-0.085
1701526165.726,19.609,19.609,-19.609,-0.0004,0.0013000000000000002,-0.0397,0.047,-0.052000000000000005,-0.084
1701526165.766,19.609,19.609,-19.609,-0.0009000000000000001,-0.0014,-0.059300000000000005,0.029,-0.036000000000000004,-0.10400000000000001
1701526165.806,19.609,19.609,-19.609,-0.0021000000000000003,-0.0004,0.0872,0.03,-0.043000000000000003,-0.105
1701526165.846,19.609,19.609,-19.609,-0.0018000000000000002,0.0032,-0.006500000000000001,-0.032,-0.043000000000000003,-0.105
1701526165.886,19.609,19.609,-19.609,0.0009000000000000001,0.00030000000000000003,-0.041800000000000004,-0.037,-0.036000000000000004,-0.125
1701526165.926,19.609,19.609,-19.609,-0.0013000000000000002,-0.0011,0.0298,-0.085,-0.049,-0.11900000000000001
1701526165.966,19.609,19.609,-19.609,-0.0002,0.0016,0.0028,-0.088,-0.025,-0.117
1701526166.006,19.609,19.609,-19.609,0.0004,0.0001,-0.018600000000000002,-0.058,-0.025,-0.128
1701526166.046,19.609,19.609,-19.609,0.0009000000000000001,0.0,-0.0512,-0.055,-0.037,-0.114
1701526166.086,19.609,19.609,-19.609,-0.002,-0.0015,0.0417,-0.068,-0.027,-0.099
1701526166.126,19.609,19.609,-19.609,-0.0016,0.0001,-0.0541,-0.049,-0.031,-0.114
1701526166.166,19.609,19.609,-19.609,-0.00030000000000000003,-0.0014,0.041600000000000005,0.021,-0.034,-0.136
1701526166.2059999,19.609,19.609,-19.609,0.0013000000000000002,0.0004,-0.0043,0.026000000000000002,-0.027,-0.121
1701526166.246,19.609,19.609,-19.609,-0.0056,-0.0005,-0.0006000000000000001,0.006,-0.029,-0.117
1701526166.286,19.609,19.609,-19.609,0.0012000000000000001,0.0005,-0.0006000000000000001,-0.008,-0.032,-0.124
1701526166.326,19.609,19.609,-19.609,-0.0009000000000000001,0.0,-0.030000000000000002,-0.024,-0.032,-0.128
1701526166.366,19.609,19.609,-19.609,0.001,-0.001,0.0058000000000000005,-0.025,-0.03,-0.129
1701526166.406,19.609,19.609,-19.609,-0.0023,0.002,0.009600000000000001,-0.015,-0.023,-0.125
1701526166.4459999,19.609,19.609,-19.609,-0.0008,-0.0002,-0.0448,-0.021,-0.021,-0.128
1701526166.486,19.609,19.609,-19.609,0.0012000000000000001,-0.0009000000000000001,0.0325,-0.02,-0.019,-0.125
1701526166.526,19.609,19.609,-19.609,0.0001,0.0016,-0.0476,-0.024,-0.034,-0.117
1701526166.566,19.609,19.609,-19.609,-0.0007,0.001,0.046,-0.003,-0.022,-0.117
1701526166.606,19.609,19.609,-19.609,-0.0012000000000000001,0.0013000000000000002,-0.0291,0.002,-0.032,-0.111
1701526166.646,19.609,19.609,-19.609,-0.0046,-0.0005,0.027600000000000003,0.005,-0.04,-0.112
1701526166.6859999,19.609,19.609,-19.609,0.0006000000000000001,0.0023,-0.049100000000000005,-0.009000000000000001,-0.038,-0.11
1701526166.726,19.609,19.609,-19.609,0.0029000000000000002,-0.0043,0.0332,0.0,-0.051000000000000004,-0.09
1701526166.766,19.609,19.609,-19.609,0.0006000000000000001,0.0001,-0.0023,0.009000000000000001,-0.051000000000000004,-0.115
1701526166.806,19.609,19.609,-19.609,-0.0002,0.0006000000000000001,-0.055900000000000005,0.004,-0.054,-0.116
1701526166.846,19.609,19.609,-19.609,0.0004,-0.0025,0.045700000000000005,-0.007,-0.063,-0.11800000000000001
1701526166.886,19.609,19.609,-19.609,-0.0023,-0.0006000000000000001,-0.0076,-0.015,-0.045,-0.109
1701526166.9259999,19.609,19.609,-19.609,-0.0009000000000000001,0.0009000000000000001,-0.008400000000000001,0.001,-0.04,-0.123
1701526166.966,19.609,19.609,-19.609,0.0007,-0.0001,-0.0391,0.0,-0.039,-0.12
1701526167.006,19.609,19.609,-19.609,0.0007,0.0031000000000000003,0.0432,-0.02,-0.037,-0.113
1701526167.046,19.609,19.609,-19.609,-0.0016,0.0,-0.0523,-0.016,-0.032,-0.115
1701526167.086,19.609,19.609,-19.609,-0.0004,-0.0018000000000000002,-0.0201,-0.007,-0.032,-0.113
1701526167.126,19.609,19.609,-19.609,0.0017000000000000001,-0.0027,0.0258,0.0,-0.05,-0.112
1701526167.166,19.609,19.609,-19.609,-0.0023,0.0004,-0.06670000000000001,0.007,-0.044,-0.121
1701526167.206,19.609,19.609,-19.609,-0.00030000000000000003,-0.0007,0.056100000000000004,-0.009000000000000001,-0.047,-0.122
1701526167.246,19.609,19.609,-19.609,0.0,-0.0017000000000000001,-0.0068000000000000005,-0.019,-0.057,-0.122
1701526167.286,19.609,19.609,-19.609,0.0021000000000000003,-0.00030000000000000003,-0.018000000000000002,-0.021,-0.064,-0.123
1701526167.326,19.609,19.609,-19.609,-0.002,0.0006000000000000001,0.0123,-0.013000000000000001,-0.034,-0.116
1701526167.366,19.609,19.609,-19.609,-0.0014,0.0004,-0.0099,-0.004,-0.036000000000000004,-0.116
1701526167.406,19.609,19.609,-19.609,-0.0019,-0.0011,-0.0539,0.013000000000000001,-0.043000000000000003,-0.11900000000000001
1701526167.446,19.609,19.609,-19.609,0.0001,0.0011,0.0489,0.001,-0.051000000000000004,-0.116
1701526167.486,19.609,19.609,-19.609,0.0006000000000000001,-0.0012000000000000001,-0.0357,0.0,-0.066,-0.10300000000000001
1701526167.526,19.609,19.609,-19.609,-0.0019,-0.00030000000000000003,0.0275,0.014,-0.053,-0.10200000000000001
1701526167.566,19.609,19.609,-19.609,-0.0009000000000000001,0.0036000000000000003,-0.026000000000000002,0.019,-0.025,-0.116
1701526167.606,19.609,19.609,-19.609,-0.0005,0.0024000000000000002,0.0162,-0.008,-0.057,-0.111
1701526167.646,19.609,19.609,-19.609,-0.0004,0.0013000000000000002,0.0058000000000000005,-0.011,-0.047,-0.111
1701526167.686,19.609,19.609,-19.609,0.00030000000000000003,0.0,-0.040600000000000004,-0.005,-0.036000000000000004,-0.111
1701526167.726,19.609,19.609,-19.609,-0.0015,-0.0026000000000000003,0.027100000000000003,0.009000000000000001,-0.07200000000000001,-0.114
1701526167.766,19.609,19.609,-19.609,-0.0021000000000000003,-0.0012000000000000001,-0.0227,-0.001,-0.053,-0.099
1701526167.806,19.609,19.609,-19.609,0.0001,-0.0009000000000000001,0.0183,0.001,-0.052000000000000005,-0.106
1701526167.846,19.609,19.609,-19.609,-0.0005,-0.00030000000000000003,-0.036000000000000004,0.005,-0.054,-0.112
1701526167.886,19.609,19.609,-19.609,0.0006000000000000001,-0.0012000000000000001,0.0236,-0.015,-0.055,-0.109
1701526167.926,19.609,19.609,-19.609,-0.0046,0.0005,-0.0509,-0.017,-0.053,-0.106
1701526167.966,19.609,19.609,-19.609,-0.0001,-0.0004,0.0456,-0.01,-0.038,-0.125
1701526168.006,19.609,19.609,-19.609,-0.001,0.0011,-0.0055000000000000005,-0.015,-0.045,-0.117
1701526168.046,19.609,19.609,-19.609,-0.0036000000000000003,-0.0004,-0.0066,-0.026000000000000002,-0.037,-0.121
1701526168.086,19.609,19.609,-19.609,0.0002,0.0004,-0.016300000000000002,-0.038,-0.041,-0.125
1701526168.126,19.609,19.609,-19.609,0.00030000000000000003,0.0018000000000000002,-0.0176,-0.034,-0.047,-0.12
1701526168.166,19.609,19.609,-19.609,0.0012000000000000001,0.0006000000000000001,-0.0514,-0.043000000000000003,-0.047,-0.12
1701526168.2059999,19.609,19.609,-19.609,0.0004,0.0026000000000000003,0.0632,-0.029,-0.038,-0.127
1701526168.246,19.609,19.609,-19.609,-0.001,0.0008,-0.0349,-0.02,-0.037,-0.124
1701526168.286,19.609,19.609,-19.609,-0.00030000000000000003,0.0016,0.0324,-0.023,-0.031,-0.112
1701526168.326,19.609,19.609,-19.609,0.0028,0.0014,0.0001,-0.028,-0.032,-0.12
1701526168.366,19.609,19.609,-19.609,-0.0001,0.00030000000000000003,-0.0357,-0.036000000000000004,-0.043000000000000003,-0.132
1701526168.406,19.609,19.609,-19.609,-0.00030000000000000003,0.00030000000000000003,0.024200000000000003,-0.04,-0.05,-0.126
1701526168.4459999,19.609,19.609,-19.609,0.0014,0.00030000000000000003,-0.0047,-0.039,-0.04,-0.126
1701526168.486,19.609,19.609,-19.609,-0.0017000000000000001,0.0015,-0.0425,-0.025,-0.051000000000000004,-0.124
1701526168.526,19.609,19.609,-19.609,0.0014,0.0039000000000000003,0.0281,-0.014,-0.051000000000000004,-0.127
1701526168.566,19.609,19.609,-19.609,-0.0006000000000000001,0.0004,0.011000000000000001,0.0,-0.043000000000000003,-0.124
1701526168.606,19.609,19.609,-19.609,-0.0028,0.0009000000000000001,-0.057300000000000004,0.005,-0.039,-0.129
1701526168.646,19.609,19.609,-19.609,-0.0002,0.0025,0.0448,0.006,-0.053,-0.115
1701526168.6859999,19.609,19.609,-19.609,-0.0019,0.00030000000000000003,0.005,0.005,-0.054,-0.116
1701526168.726,19.609,19.609,-19.609,-0.0025,0.0,-0.053700000000000005,0.007,-0.048,-0.112
1701526168.766,19.609,19.609,-19.609,-0.0002,-0.0004,0.033600000000000005,0.002,-0.048,-0.12
1701526168.806,19.609,19.609,-19.609,0.00030000000000000003,0.00030000000000000003,0.0029000000000000002,-0.002,-0.054,-0.126
1701526168.846,19.609,19.609,-19.609,-0.0025,0.001,-0.041100000000000005,-0.003,-0.054,-0.125
1701526168.886,19.609,19.609,-19.609,-0.002,0.0,0.031900000000000005,0.007,-0.059000000000000004,-0.12
1701526168.9259999,19.609,19.609,-19.609,-0.0007,0.0001,-0.0446,0.0,-0.053,-0.117
1701526168.966,19.609,19.609,-19.609,0.00030000000000000003,-0.0018000000000000002,-0.018000000000000002,-0.001,-0.055,-0.113
1701526169.006,19.609,19.609,-19.609,-0.0001,-0.0017000000000000001,-0.051500000000000004,0.005,-0.049,-0.113
1701526169.046,19.609,19.609,-19.609,-0.001,-0.0006000000000000001,0.049,0.0,-0.04,-0.106
1701526169.086,19.609,19.609,-19.609,-0.0004,-0.0022,-0.0324,-0.003,-0.039,-0.11
1701526169.126,19.609,19.609,-19.609,0.0004,-0.00030000000000000003,0.0239,-0.002,-0.052000000000000005,-0.122
1701526169.166,19.609,19.609,-19.609,-0.0014,-0.0008,0.0016,-0.006,-0.054,-0.117
1701526169.206,19.609,19.609,-19.609,0.00030000000000000003,0.0006000000000000001,-0.014700000000000001,-0.015,-0.03,-0.113
1701526169.246,19.609,19.609,-19.609,-0.00030000000000000003,0.0012000000000000001,-0.0067,-0.006,-0.034,-0.113
1701526169.286,19.609,19.609,-19.609,0.001,0.0006000000000000001,-0.0039000000000000003,-0.012,-0.044,-0.11
1701526169.326,19.609,19.609,-19.609,0.0015,0.0009000000000000001,-0.0206,-0.009000000000000001,-0.042,-0.115
1701526169.366,19.609,19.609,-19.609,0.0015,0.0007,0.015300000000000001,-0.002,-0.051000000000000004,-0.112
1701526169.406,19.609,19.609,-19.609,0.0008,0.0028,-0.0543,0.0,-0.06,-0.122
1701526169.446,19.609,19.609,-19.609,0.0017000000000000001,-0.0006000000000000001,0.0434,0.0,-0.058,-0.117
1701526169.486,19.609,19.609,-19.609,-0.0034000000000000002,0.0,-0.0358,-0.005,-0.045,-0.12
1701526169.526,19.609,19.609,-19.609,0.0001,0.0018000000000000002,0.0268,0.003,-0.04,-0.11900000000000001
1701526169.566,19.609,19.609,-19.609,-0.0013000000000000002,0.0,-0.0175,0.004,-0.046,-0.11800000000000001
1701526169.606,19.609,19.609,-19.609,-0.0025,0.0007,0.02,0.0,-0.042,-0.11900000000000001
1701526169.646,19.609,19.609,-19.609,0.0004,-0.0004,-0.0029000000000000002,0.01,-0.047,-0.115
1701526169.686,19.609,19.609,-19.609,-0.0001,0.0009000000000000001,0.001,0.0,-0.041,-0.116
1701526169.726,19.609,19.609,-19.609,-0.0007,0.0017000000000000001,-0.0328,0.001,-0.042,-0.114
1701526169.766,19.609,19.609,-19.609,-0.0004,0.0,0.0014,0.003,-0.05,-0.122
1701526169.806,19.609,19.609,-19.609,-0.0008,-0.0002,0.0179,-0.006,-0.053,-0.121
1701526169.846,19.609,19.609,-19.609,0.001,-0.0005,-0.0258,0.001,-0.048,-0.109
1701526169.886,19.609,19.609,-19.609,-0.0009000000000000001,-0.0017000000000000001,0.0238,-0.007,-0.061,-0.124
1701526169.926,19.609,19.609,-19.609,0.001,0.0014,-0.0014,-0.019,-0.057,-0.126
1701526169.966,19.609,19.609,-19.609,-0.0009000000000000001,0.0013000000000000002,-0.0134,-0.003,-0.028,-0.121
1701526170.006,19.609,19.609,-19.609,-0.0017000000000000001,-0.0012000000000000001,-0.0316,-0.05,-0.008,-0.123
1701526170.046,19.609,19.609,-19.609,0.0001,0.0002,-0.0653,-0.042,-0.027,-0.14200000000000002
1701526170.086,19.609,19.609,-19.609,-0.0008,0.0013000000000000002,0.09280000000000001,-0.068,-0.035,-0.123
1701526170.126,19.609,19.609,-19.609,0.0001,-0.0011,-0.0587,-0.076,-0.03,-0.122
1701526170.166,19.609,19.609,-19.609,0.0002,0.0,0.042300000000000004,-0.063,-0.003,-0.122
1701526170.2059999,19.609,19.609,-19.609,-0.001,-0.0017000000000000001,-0.024800000000000003,-0.067,0.001,-0.114
1701526170.246,19.609,19.609,-19.609,0.0,0.0023,-0.0632,-0.065,-0.005,-0.128
1701526170.286,19.609,19.609,-19.609,0.0,-0.0002,0.08220000000000001,-0.053,-0.039,-0.123
1701526170.326,19.609,19.609,-19.609,-0.0015,-0.0026000000000000003,-0.0405,-0.043000000000000003,-0.039,-0.123
1701526170.366,19.609,19.609,-19.609,0.0008,0.0012000000000000001,0.0258,-0.037,-0.031,-0.122
1701526170.406,19.609,19.609,-19.609,-0.0015,0.0012000000000000001,-0.0563,-0.042,-0.05,-0.123
1701526170.4459999,19.609,19.609,-19.609,-0.0007,0.0009000000000000001,0.041600000000000005,-0.046,-0.026000000000000002,-0.133
1701526170.486,19.609,19.609,-19.609,-0.002,-0.0001,-0.0015,-0.032,-0.042,-0.148
1701526170.526,19.609,19.609,-19.609,-0.0014,0.0022,-0.0585,-0.054,-0.045,-0.134
1701526170.566,19.609,19.609,-19.609,-0.0025,0.0015,0.049100000000000005,-0.058,-0.035,-0.11
1701526170.606,19.609,19.609,-19.609,-0.0009000000000000001,-0.0004,0.0036000000000000003,-0.026000000000000002,-0.023,-0.106
1701526170.646,19.609,19.609,-19.609,0.0011,0.0001,-0.0659,-0.042,-0.026000000000000002,-0.083
1701526170.6859999,19.609,19.609,-19.609,0.00030000000000000003,-0.0006000000000000001,0.0453,-0.065,-0.039,-0.10300000000000001
1701526170.726,19.609,19.609,-19.609,-0.0017000000000000001,0.0007,-0.0252,-0.021,-0.039,-0.126
1701526170.766,19.609,19.609,-19.609,0.0008,-0.0014,0.0349,-0.004,-0.042,-0.136
1701526170.806,19.609,19.609,-19.609,0.0029000000000000002,-0.0001,0.009300000000000001,-0.025,-0.027,-0.133
1701526170.846,19.609,19.609,-19.609,0.0012000000000000001,-0.00030000000000000003,-0.038200000000000005,-0.027,-0.018000000000000002,-0.125
1701526170.886,19.609,19.609,-19.609,0.0006000000000000001,0.0007,0.0111,-0.03,-0.014,-0.114
1701526170.9259999,19.609,19.609,-19.609,-0.0031000000000000003,-0.0002,0.0057,-0.024,-0.014,-0.105
1701526170.966,19.609,19.609,-19.609,-0.0001,0.0019,-0.0543,-0.035,-0.01,-0.10400000000000001
1701526171.006,19.609,19.609,-19.609,-0.0007,-0.0023,0.038,-0.01,-0.01,-0.106
1701526171.046,19.609,19.609,-19.609,0.0001,0.0002,-0.0035,-0.02,-0.02,-0.111
1701526171.086,19.609,19.609,-19.609,-0.0015,0.00030000000000000003,-0.0511,-0.024,-0.038,-0.112
1701526171.126,19.609,19.609,-19.609,0.0009000000000000001,0.0012000000000000001,0.038700000000000005,-0.017,-0.05,-0.115
1701526171.166,19.609,19.609,-19.609,-0.001,-0.0006000000000000001,-0.0291,-0.013000000000000001,-0.049,-0.116
1701526171.206,19.609,19.609,-19.609,0.0027,0.0,0.0269,-0.011,-0.04,-0.116
1701526171.246,19.609,19.609,-19.609,0.0,0.0012000000000000001,-0.0349,-0.013000000000000001,-0.017,-0.127
1701526171.286,19.609,19.609,-19.609,0.00030000000000000003,0.0012000000000000001,0.025,-0.023,-0.02,-0.124
1701526171.326,19.609,19.609,-19.609,-0.0009000000000000001,0.0021000000000000003,-0.0364,-0.018000000000000002,-0.022,-0.126
1701526171.366,19.609,19.609,-19.609,-0.0004,0.0009000000000000001,0.0264,-0.014,-0.032,-0.135
1701526171.406,19.609,19.609,-19.609,-0.0005,0.0028,-0.023,-0.012,-0.045,-0.11
1701526171.446,19.609,19.609,-19.609,-0.0022,-0.0012000000000000001,0.0145,0.009000000000000001,-0.04,-0.093
1701526171.486,19.609,19.609,-19.609,0.001,0.0011,-0.0317,0.029,-0.045,-0.109
1701526171.526,19.609,19.609,-19.609,0.0,0.0014,0.0205,0.024,-0.045,-0.109
1701526171.566,19.609,19.609,-19.609,0.0008,0.0006000000000000001,-0.0038,0.001,-0.038,-0.092
1701526171.606,19.609,19.609,-19.609,0.0001,0.0001,-0.0083,0.006,-0.04,-0.107
1701526171.646,19.609,19.609,-19.609,-0.0006000000000000001,0.0022,0.0034000000000000002,0.008,-0.057,-0.116
1701526171.686,19.609,19.609,-19.609,0.0,-0.0004,-0.019100000000000002,-0.001,-0.077,-0.10200000000000001
1701526171.726,19.609,19.609,-19.609,0.0,0.0021000000000000003,-0.0122,0.005,-0.053,-0.11900000000000001
1701526171.766,19.609,19.609,-19.609,-0.0002,-0.0007,0.020200000000000003,0.003,-0.051000000000000004,-0.117
1701526171.806,19.609,19.609,-19.609,0.0,-0.0016,0.0021000000000000003,-0.004,-0.062,-0.115
1701526171.846,19.609,19.609,-19.609,-0.00030000000000000003,0.00030000000000000003,-0.0668,0.006,-0.06,-0.121
1701526171.886,19.609,19.609,-19.609,-0.00030000000000000003,0.00030000000000000003,0.0604,0.02,-0.046,-0.122
1701526171.926,19.609,19.609,-19.609,0.0023,-0.0005,-0.0415,0.027,-0.02,-0.123
1701526171.966,19.609,19.609,-19.609,0.0002,0.0,0.0322,-0.025,0.003,-0.11
1701526172.006,19.609,19.609,-19.609,-0.0018000000000000002,-0.0006000000000000001,-0.023100000000000002,-0.047,0.008,-0.107
1701526172.046,19.609,19.609,-19.609,-0.0001,-0.0004,-0.052500000000000005,-0.034,0.001,-0.097
1701526172.086,19.609,19.609,-19.609,0.0005,0.0012000000000000001,0.0618,-0.019,-0.037,-0.109
1701526172.126,19.609,19.609,-19.609,0.0034000000000000002,-0.0004,-0.0067,-0.027,-0.04,-0.124
1701526172.166,19.609,19.609,-19.609,-0.0011,0.0025,-0.010400000000000001,-0.019,-0.031,-0.11900000000000001
1701526172.2059999,19.609,19.609,-19.609,0.0013000000000000002,0.0006000000000000001,-0.046,-0.021,-0.015,-0.115
1701526172.246,19.609,19.609,-19.609,0.0007,0.0,0.024200000000000003,-0.011,0.01,-0.129
1701526172.286,19.609,19.609,-19.609,-0.0018000000000000002,-0.0004,0.0194,0.007,0.003,-0.121
1701526172.326,19.609,19.609,-19.609,0.001,-0.00030000000000000003,-0.0083,0.017,-0.027,-0.11900000000000001
1701526172.366,19.609,19.609,-19.609,-0.0014,0.0017000000000000001,0.007500000000000001,-0.005,-0.058,-0.13
1701526172.406,19.609,19.609,-19.609,-0.0012000000000000001,-0.00030000000000000003,-0.0441,-0.021,-0.053,-0.11800000000000001
1701526172.4459999,19.609,19.609,-19.609,-0.0021000000000000003,-0.0004,0.0333,-0.003,-0.051000000000000004,-0.11800000000000001
1701526172.486,19.609,19.609,-19.609,-0.0007,0.0,-0.0316,-0.007,-0.042,-0.116
1701526172.526,19.609,19.609,-19.609,-0.001,-0.0007,0.0195,-0.009000000000000001,-0.04,-0.107
1701526172.566,19.609,19.609,-19.609,0.0021000000000000003,0.0018000000000000002,0.012,-0.01,-0.034,-0.117
1701526172.606,19.609,19.609,-19.609,0.0022,0.0009000000000000001,0.032600000000000004,-0.024,-0.038,-0.115
1701526172.646,19.609,19.609,-19.609,-0.0017000000000000001,-0.00030000000000000003,-0.0592,-0.031,-0.038,-0.121
1701526172.6859999,19.609,19.609,-19.609,-0.001,-0.0002,0.0733,-0.019,-0.032,-0.114
1701526172.726,19.609,19.609,-19.609,0.0,-0.0011,-0.0558,0.003,-0.039,-0.11
1701526172.766,19.609,19.609,-19.609,-0.0031000000000000003,0.0022,0.0383,0.001,-0.052000000000000005,-0.112
1701526172.806,19.609,19.609,-19.609,-0.0004,-0.0007,-0.0154,0.009000000000000001,-0.062,-0.10200000000000001
1701526172.846,19.609,19.609,-19.609,0.0009000000000000001,0.0015,0.0142,0.029,-0.059000000000000004,-0.1
1701526172.886,19.609,19.609,-19.609,-0.004200000000000001,-0.0005,-0.033800000000000004,0.012,-0.059000000000000004,-0.111
1701526172.9259999,19.609,19.609,-19.609,-0.0006000000000000001,-0.0002,0.0308,0.003,-0.065,-0.089
1701526172.966,19.609,19.609,-19.609,0.0007,0.0013000000000000002,-0.0032,0.019,-0.067,-0.097
1701526173.006,19.609,19.609,-19.609,0.0005,0.0015,-0.0673,0.031,-0.067,-0.113
1701526173.046,19.609,19.609,-19.609,0.0012000000000000001,-0.00030000000000000003,0.059800000000000006,-0.001,-0.066,-0.113
1701526173.086,19.609,19.609,-19.609,0.0024000000000000002,-0.0016,-0.052000000000000005,-0.005,-0.066,-0.11
1701526173.126,19.609,19.609,-19.609,0.0004,-0.001,0.04,0.001,-0.023,-0.108
1701526173.166,19.609,19.609,-19.609,-0.0005,0.0012000000000000001,-0.0258,0.0,-0.041,-0.109
1701526173.206,19.609,19.609,-19.609,-0.0013000000000000002,0.0007,0.0187,-0.011,-0.038,-0.094
1701526173.246,19.609,19.609,-19.609,0.0007,0.002,-0.0426,0.003,-0.053,-0.10200000000000001
1701526173.286,19.609,19.609,-19.609,0.001,0.0005,0.0357,-0.005,-0.045,-0.112
1701526173.326,19.609,19.609,-19.609,-0.001,-0.0004,-0.0324,-0.013000000000000001,-0.041,-0.105
1701526173.366,19.609,19.609,-19.609,-0.0037,0.0021000000000000003,0.0316,-0.005,-0.047,-0.11900000000000001
1701526173.406,19.609,19.609,-19.609,0.0004,0.0001,-0.0284,0.008,-0.03,-0.12
1701526173.446,19.609,19.609,-19.609,-0.0001,-0.0015,0.0155,-0.004,-0.046,-0.122
1701526173.486,19.609,19.609,-19.609,0.0001,-0.0006000000000000001,-0.008400000000000001,-0.005,-0.054,-0.115
1701526173.526,19.609,19.609,-19.609,-0.0005,-0.00030000000000000003,0.0023,0.001,-0.053,-0.117
1701526173.566,19.609,19.609,-19.609,0.0038,0.0009000000000000001,-0.0059,0.0,-0.049,-0.113
1701526173.606,19.609,19.609,-19.609,0.00030000000000000003,0.001,-0.0044,0.004,-0.058,-0.117
1701526173.646,19.609,19.609,-19.609,-0.0008,-0.0009000000000000001,0.0045000000000000005,0.004,-0.056,-0.127
1701526173.686,19.609,19.609,-19.609,-0.0014,0.0009000000000000001,-0.0073,0.0,-0.058,-0.126
1701526173.726,19.609,19.609,-19.609,-0.0018000000000000002,0.0006000000000000001,-0.06720000000000001,0.0,-0.057,-0.111
1701526173.766,19.609,19.609,-19.609,-0.0013000000000000002,0.0006000000000000001,0.0675,0.007,-0.05,-0.115
1701526173.806,19.609,19.609,-19.609,-0.0014,0.0005,-0.0128,-0.001,-0.048,-0.11900000000000001
1701526173.846,19.609,19.609,-19.609,-0.0005,-0.0001,-0.0286,-0.012,-0.036000000000000004,-0.109
1701526173.886,19.609,19.609,-19.609,-0.00030000000000000003,0.0,0.0239,-0.003,-0.026000000000000002,-0.111
1701526173.926,19.609,19.609,-19.609,0.0015,-0.0012000000000000001,-0.048400000000000006,-0.001,-0.031,-0.117
1701526173.966,19.609,19.609,-19.609,0.0004,0.0009000000000000001,0.0379,0.004,-0.033,-0.114
1701526174.006,19.609,19.609,-19.609,0.0019,0.0005,-0.0253,0.016,-0.031,-0.105
1701526174.046,19.609,19.609,-19.609,0.0012000000000000001,0.0009000000000000001,0.013600000000000001,0.022,-0.052000000000000005,-0.11
1701526174.086,19.609,19.609,-19.609,-0.0001,0.0011,-0.0053,0.018000000000000002,-0.051000000000000004,-0.108
1701526174.126,19.609,19.609,-19.609,0.004,0.0012000000000000001,-0.01,0.017,-0.047,-0.12
1701526174.166,19.609,19.609,-19.609,-0.0001,-0.00030000000000000003,-0.0673,0.009000000000000001,-0.028,-0.11900000000000001
1701526174.2059999,19.609,19.609,-19.609,-0.0015,-0.00030000000000000003,-0.037000000000000005,-0.033,-0.017,-0.127
1701526174.246,19.609,19.609,-19.609,-0.0007,-0.00030000000000000003,0.09570000000000001,-0.041,-0.024,-0.122
1701526174.286,19.609,19.609,-19.609,0.0012000000000000001,-0.0007,-0.0391,-0.036000000000000004,-0.015,-0.128
1701526174.326,19.609,19.609,-19.609,-0.0031000000000000003,-0.0008,0.027700000000000002,-0.031,-0.012,-0.115
1701526174.366,19.609,19.609,-19.609,0.0011,0.0014,0.0043,-0.005,-0.02,-0.098
1701526174.406,19.609,19.609,-19.609,-0.0014,0.0006000000000000001,0.0296,0.012,-0.023,-0.081
1701526174.4459999,19.609,19.609,-19.609,0.0031000000000000003,-0.0013000000000000002,-0.0307,-0.003,-0.027,-0.093
1701526174.486,19.609,19.609,-19.609,0.0007,-0.0004,-0.057300000000000004,0.0,-0.047,-0.1
1701526174.526,19.609,19.609,-19.609,0.0008,0.0009000000000000001,0.0597,-0.011,-0.052000000000000005,-0.133
1701526174.566,19.609,19.609,-19.609,-0.0044,-0.001,-0.044000000000000004,-0.021,-0.051000000000000004,-0.153
1701526174.606,19.609,19.609,-19.609,-0.0009000000000000001,0.0018000000000000002,0.0398,-0.019,-0.049,-0.14300000000000002
1701526174.646,19.609,19.609,-19.609,-0.0005,-0.0025,-0.048,-0.011,-0.038,-0.136
1701526174.6859999,19.609,19.609,-19.609,0.001,-0.0008,0.039,-0.014,-0.025,-0.106
1701526174.726,19.609,19.609,-19.609,0.0,-0.0007,-0.039,0.001,-0.028,-0.07200000000000001
1701526174.766,19.609,19.609,-19.609,-0.0011,0.00030000000000000003,0.027100000000000003,0.041,-0.027,-0.067
1701526174.806,19.609,19.609,-19.609,0.0002,0.0023,-0.0173,0.048,-0.038,-0.097
1701526174.846,19.609,19.609,-19.609,0.0001,0.0009000000000000001,-0.0675,0.005,-0.06,-0.131
1701526174.886,19.609,19.609,-19.609,-0.0007,-0.0011,0.0722,-0.012,-0.046,-0.128
1701526174.9259999,19.609,19.609,-19.609,0.0,0.0009000000000000001,-0.0375,-0.019,-0.025,-0.134
1701526174.966,19.609,19.609,-19.609,-0.00030000000000000003,0.0005,0.027800000000000002,-0.011,-0.016,-0.131
1701526175.006,19.609,19.609,-19.609,0.0008,0.00030000000000000003,-0.0623,0.003,-0.049,-0.109
1701526175.046,19.609,19.609,-19.609,0.0027,0.0015,0.06670000000000001,0.012,-0.061,-0.11
1701526175.086,19.609,19.609,-19.609,0.0005,0.0026000000000000003,-0.0332,0.003,-0.073,-0.115
1701526175.126,19.609,19.609,-19.609,-0.002,-0.0011,0.0189,-0.009000000000000001,-0.064,-0.098
1701526175.166,19.609,19.609,-19.609,-0.0021000000000000003,-0.0014,-0.0033,0.028,-0.051000000000000004,-0.101
1701526175.206,19.609,19.609,-19.609,-0.0028,0.0,-0.037000000000000005,0.014,-0.061,-0.106
1701526175.246,19.609,19.609,-19.609,-0.0014,0.0,0.021400000000000002,-0.03,-0.045,-0.094
1701526175.286,19.609,19.609,-19.609,0.0002,-0.0005,0.004,0.011,-0.045,-0.105
1701526175.326,19.609,19.609,-19.609,-0.0005,0.0001,-0.0047,0.012,-0.061,-0.111
1701526175.366,19.609,19.609,-19.609,0.0001,-0.0015,-0.05,0.005,-0.04,-0.105
1701526175.406,19.609,19.609,-19.609,0.0007,-0.0006000000000000001,0.0388,-0.004,-0.062,-0.105
1701526175.446,19.609,19.609,-19.609,0.0002,-0.0004,-0.0056,-0.013000000000000001,-0.062,-0.10400000000000001
1701526175.486,19.609,19.609,-19.609,0.0001,-0.0004,0.0013000000000000002,-0.033,-0.054,-0.076
1701526175.526,19.609,19.609,-19.609,-0.0021000000000000003,0.0032,-0.024200000000000003,-0.06,-0.05,-0.053
1701526175.566,19.609,19.609,-19.609,0.0001,-0.0021000000000000003,0.0162,-0.068,-0.039,-0.044
1701526175.606,19.609,19.609,-19.609,-0.0011,-0.0014,-0.0509,-0.029,-0.056,-0.082
1701526175.646,19.609,19.609,-19.609,-0.0023,0.0006000000000000001,0.0368,0.016,-0.049,-0.105
1701526175.686,19.609,19.609,-19.609,-0.0007,0.0028,-0.033,0.013000000000000001,-0.043000000000000003,-0.105
1701526175.726,19.609,19.609,-19.609,0.0021000000000000003,0.0004,0.0204,-0.005,-0.055,-0.105
1701526175.766,19.609,19.609,-19.609,-0.0022,-0.0007,-0.016300000000000002,-0.003,-0.056,-0.112
1701526175.806,19.609,19.609,-19.609,-0.0009000000000000001,0.0011,-0.007200000000000001,0.001,-0.059000000000000004,-0.111
1701526175.846,19.609,19.609,-19.609,0.0009000000000000001,-0.0012000000000000001,0.0173,0.013000000000000001,-0.062,-0.117
1701526175.886,19.609,19.609,-19.609,0.0008,0.0,0.0029000000000000002,0.01,-0.057,-0.11
1701526175.926,19.609,19.609,-19.609,0.0001,-0.0008,-0.0472,0.006,-0.052000000000000005,-0.122
1701526175.966,19.609,19.609,-19.609,-0.0024000000000000002,-0.001,0.029400000000000003,0.005,-0.05,-0.124
1701526176.006,19.609,19.609,-19.609,-0.0001,-0.0011,0.0014,-0.009000000000000001,-0.044,-0.127
1701526176.046,19.609,19.609,-19.609,-0.001,-0.0002,-0.0368,-0.003,-0.038,-0.123
1701526176.086,19.609,19.609,-19.609,-0.0009000000000000001,-0.0012000000000000001,0.027200000000000002,0.0,-0.029,-0.133
1701526176.126,19.609,19.609,-19.609,0.0006000000000000001,-0.0019,0.0017000000000000001,-0.007,-0.05,-0.133
1701526176.166,19.609,19.609,-19.609,-0.0012000000000000001,-0.0014,-0.0161,-0.022,-0.059000000000000004,-0.128
1701526176.2059999,19.609,19.609,-19.609,-0.0001,0.0013000000000000002,0.010100000000000001,-0.017,-0.054,-0.129
1701526176.246,19.609,19.609,-19.609,-0.0004,-0.00030000000000000003,0.0229,0.0,-0.044,-0.122
1701526176.286,19.609,19.609,-19.609,0.0008,-0.0008,-0.0374,0.006,-0.036000000000000004,-0.113
1701526176.326,19.609,19.609,-19.609,0.0,0.0012000000000000001,0.034800000000000005,0.017,-0.032,-0.11
1701526176.366,19.609,19.609,-19.609,-0.0009000000000000001,0.0002,-0.0533,0.001,-0.04,-0.117
1701526176.406,19.609,19.609,-19.609,-0.0007,-0.00030000000000000003,0.045200000000000004,0.0,-0.049,-0.115
1701526176.4459999,19.609,19.609,-19.609,0.00030000000000000003,0.0002,-0.030500000000000003,0.01,-0.064,-0.111
1701526176.486,19.609,19.609,-19.609,0.00030000000000000003,-0.0012000000000000001,0.026000000000000002,0.014,-0.062,-0.114
1701526176.526,19.609,19.609,-19.609,-0.0005,0.0006000000000000001,-0.0374,0.004,-0.065,-0.117
1701526176.566,19.609,19.609,-19.609,0.0001,0.0001,0.019200000000000002,0.013000000000000001,-0.053,-0.112
1701526176.606,19.609,19.609,-19.609,-0.0001,-0.0001,-0.04,0.003,-0.048,-0.113
1701526176.646,19.609,19.609,-19.609,0.0009000000000000001,-0.001,0.0424,0.02,-0.054,-0.114
1701526176.6859999,19.609,19.609,-19.609,0.001,0.00030000000000000003,-0.044700000000000004,0.009000000000000001,-0.059000000000000004,-0.111
1701526176.726,19.609,19.609,-19.609,-0.0045000000000000005,0.0008,0.0351,0.011,-0.058,-0.11
1701526176.766,19.609,19.609,-19.609,0.0,-0.0002,-0.0267,0.008,-0.059000000000000004,-0.126
1701526176.806,19.609,19.609,-19.609,-0.0004,-0.0001,-0.0142,0.011,-0.051000000000000004,-0.105
1701526176.846,19.609,19.609,-19.609,-0.001,0.0,0.0256,0.017,-0.049,-0.111
1701526176.886,19.609,19.609,-19.609,-0.0001,0.0002,-0.0086,0.027,-0.088,-0.129
1701526176.9259999,19.609,19.609,-19.609,-0.0012000000000000001,-0.0022,0.0012000000000000001,0.009000000000000001,-0.058,-0.11900000000000001
1701526176.966,19.609,19.609,-19.609,0.00030000000000000003,0.0009000000000000001,-0.0344,0.004,-0.058,-0.113
1701526177.006,19.609,19.609,-19.609,-0.0015,-0.0002,-0.055900000000000005,0.011,-0.046,-0.123
1701526177.046,19.609,19.609,-19.609,-0.0014,0.0008,0.08,0.012,-0.049,-0.111
1701526177.086,19.609,19.609,-19.609,-0.0026000000000000003,-0.0004,-0.045200000000000004,0.012,-0.075,-0.122
1701526177.126,19.609,19.609,-19.609,0.0046,0.0,0.0309,0.003,-0.055,-0.116
1701526177.166,19.609,19.609,-19.609,0.0017000000000000001,0.0,-0.0371,0.005,-0.037,-0.116
1701526177.206,19.609,19.609,-19.609,-0.0001,0.0021000000000000003,0.027100000000000003,0.013000000000000001,-0.062,-0.122
1701526177.246,19.609,19.609,-19.609,0.0029000000000000002,0.0021000000000000003,-0.0495,0.007,-0.067,-0.121
1701526177.286,19.609,19.609,-19.609,0.001,0.0016,0.037000000000000005,-0.009000000000000001,-0.065,-0.11800000000000001
1701526177.326,19.609,19.609,-19.609,-0.0007,0.0009000000000000001,0.0026000000000000003,-0.001,-0.059000000000000004,-0.12
1701526177.366,19.609,19.609,-19.609,0.0,-0.0006000000000000001,-0.015600000000000001,0.005,-0.042,-0.116
1701526177.406,19.609,19.609,-19.609,-0.0001,0.0017000000000000001,0.0086,0.001,-0.049,-0.113
1701526177.446,19.609,19.609,-19.609,-0.0015,-0.0012000000000000001,-0.0187,-0.011,-0.045,-0.12
1701526177.486,19.609,19.609,-19.609,0.0012000000000000001,-0.0009000000000000001,0.0109,-0.007,-0.053,-0.11800000000000001
1701526177.526,19.609,19.609,-19.609,-0.0014,0.0008,-0.0128,-0.012,-0.047,-0.123
1701526177.566,19.609,19.609,-19.609,-0.0009000000000000001,-0.001,-0.0123,-0.004,-0.043000000000000003,-0.109
1701526177.606,19.609,19.609,-19.609,-0.0018000000000000002,-0.0002,0.016,-0.002,-0.05,-0.112
1701526177.646,19.609,19.609,-19.609,0.0006000000000000001,0.0018000000000000002,-0.015300000000000001,0.003,-0.051000000000000004,-0.11800000000000001
1701526177.686,19.609,19.609,-19.609,0.0012000000000000001,-0.0019,0.0068000000000000005,-0.012,-0.042,-0.106
1701526177.726,19.609,19.609,-19.609,0.0001,0.0004,-0.0432,-0.007,-0.043000000000000003,-0.11
1701526177.766,19.609,19.609,-19.609,0.002,-0.0013000000000000002,0.041600000000000005,-0.006,-0.046,-0.114
1701526177.806,19.609,19.609,-19.609,0.0009000000000000001,0.0022,0.0007,-0.001,-0.053,-0.116
1701526177.846,19.609,19.609,-19.609,0.0001,0.001,-0.048100000000000004,-0.003,-0.048,-0.115
1701526177.886,19.609,19.609,-19.609,0.0018000000000000002,-0.0001,0.027600000000000003,-0.003,-0.06,-0.109
1701526177.926,19.609,19.609,-19.609,-0.0015,0.0025,-0.029500000000000002,-0.004,-0.055,-0.106
1701526177.966,19.609,19.609,-19.609,0.00030000000000000003,0.0018000000000000002,0.013300000000000001,0.0,-0.053,-0.11
1701526178.006,19.609,19.609,-19.609,-0.0032,0.001,-0.0229,-0.003,-0.056,-0.109
1701526178.046,19.609,19.609,-19.609,-0.0016,-0.0007,-0.0064,-0.002,-0.047,-0.11
1701526178.086,19.609,19.609,-19.609,0.0007,0.0001,0.0029000000000000002,-0.007,-0.047,-0.116
1701526178.126,19.609,19.609,-19.609,-0.0032,-0.0004,-0.009600000000000001,0.0,-0.049,-0.107
1701526178.166,19.609,19.609,-19.609,-0.002,0.0012000000000000001,0.0037,0.0,-0.051000000000000004,-0.113
1701526178.2059999,19.609,19.609,-19.609,-0.0023,0.002,0.0017000000000000001,0.01,-0.055,-0.098
1701526178.246,19.609,19.609,-19.609,-0.0018000000000000002,-0.0004,-0.041100000000000005,-0.005,-0.055,-0.10200000000000001
1701526178.286,19.609,19.609,-19.609,-0.001,0.0015,0.0256,0.0,-0.049,-0.098
1701526178.326,19.609,19.609,-19.609,-0.001,-0.0005,0.0022,0.003,-0.049,-0.10300000000000001
1701526178.366,19.609,19.609,-19.609,-0.0023,-0.0007,-0.045200000000000004,0.0,-0.056,-0.115
1701526178.406,19.609,19.609,-19.609,-0.0016,-0.0009000000000000001,0.031200000000000002,-0.008,-0.046,-0.113
1701526178.4459999,19.609,19.609,-19.609,0.0008,0.0021000000000000003,-0.047900000000000005,-0.004,-0.036000000000000004,-0.10200000000000001
1701526178.486,19.609,19.609,-19.609,-0.0013000000000000002,-0.0002,0.0441,-0.008,-0.038,-0.115
1701526178.526,19.609,19.609,-19.609,0.0,0.00030000000000000003,-0.0081,0.008,-0.034,-0.115
1701526178.566,19.609,19.609,-19.609,-0.0012000000000000001,0.0009000000000000001,-0.0001,-0.004,-0.041,-0.111
1701526178.606,19.609,19.609,-19.609,-0.0012000000000000001,-0.0001,-0.057600000000000005,-0.005,-0.038,-0.121
1701526178.646,19.609,19.609,-19.609,0.0012000000000000001,-0.0012000000000000001,0.0485,-0.011,-0.037,-0.11900000000000001
1701526178.6859999,19.609,19.609,-19.609,-0.0034000000000000002,-0.0004,-0.040100000000000004,-0.011,-0.037,-0.12
1701526178.726,19.609,19.609,-19.609,0.0034000000000000002,0.0012000000000000001,0.023100000000000002,-0.012,-0.041,-0.117
1701526178.766,19.609,19.609,-19.609,-0.00030000000000000003,-0.0004,0.0142,-0.001,-0.037,-0.109
1701526178.806,19.609,19.609,-19.609,0.001,-0.0006000000000000001,-0.0076,0.004,-0.042,-0.122
1701526178.846,19.609,19.609,-19.609,-0.0002,0.0002,-0.024900000000000002,-0.004,-0.036000000000000004,-0.115
1701526178.886,19.609,19.609,-19.609,0.0007,0.0019,0.0109,-0.013000000000000001,-0.039,-0.11800000000000001
1701526178.9259999,19.609,19.609,-19.609,-0.0009000000000000001,-0.0002,-0.0369,-0.003,-0.049,-0.12
1701526178.966,19.609,19.609,-19.609,-0.00030000000000000003,-0.0013000000000000002,-0.0368,-0.007,-0.046,-0.125
1701526179.006,19.609,19.609,-19.609,0.001,0.0009000000000000001,0.0599,-0.01,-0.046,-0.115
1701526179.046,19.609,19.609,-19.609,-0.0031000000000000003,0.0004,-0.0405,-0.007,-0.043000000000000003,-0.10400000000000001
1701526179.086,19.609,19.609,-19.609,-0.0021000000000000003,0.0002,0.0357,0.003,-0.04,-0.11
1701526179.126,19.609,19.609,-19.609,0.0017000000000000001,-0.0007,-0.0023,0.0,-0.054,-0.114
1701526179.166,19.609,19.609,-19.609,0.0014,-0.00030000000000000003,-0.0307,-0.001,-0.043000000000000003,-0.11
1701526179.206,19.609,19.609,-19.609,-0.0001,-0.00030000000000000003,-0.0132,-0.005,-0.038,-0.111
1701526179.246,19.609,19.609,-19.609,-0.0014,-0.0005,0.0217,-0.005,-0.055,-0.114
1701526179.286,19.609,19.609,-19.609,-0.0004,0.00030000000000000003,-0.0129,-0.001,-0.05,-0.10300000000000001
1701526179.326,19.609,19.609,-19.609,-0.0017000000000000001,-0.0013000000000000002,-0.0021000000000000003,0.0,-0.041,-0.106
1701526179.366,19.609,19.609,-19.609,0.0039000000000000003,0.0008,0.012,0.002,-0.038,-0.112
1701526179.406,19.609,19.609,-19.609,0.0017000000000000001,-0.0006000000000000001,-0.043300000000000005,-0.001,-0.05,-0.106
1701526179.446,19.609,19.609,-19.609,-0.0009000000000000001,-0.0004,0.019100000000000002,0.002,-0.054,-0.115
1701526179.486,19.609,19.609,-19.609,-0.0012000000000000001,-0.00030000000000000003,-0.0678,0.012,-0.05,-0.12
1701526179.526,19.609,19.609,-19.609,-0.0002,-0.0002,0.0703,-0.001,-0.044,-0.112
1701526179.566,19.609,19.609,-19.609,-0.0007,-0.0012000000000000001,-0.042300000000000004,-0.001,-0.048,-0.112
1701526179.606,19.609,19.609,-19.609,-0.0012000000000000001,-0.0001,0.0264,0.001,-0.046,-0.11800000000000001
1701526179.646,19.609,19.609,-19.609,-0.0007,-0.0006000000000000001,-0.017,0.0,-0.05,-0.113
1701526179.686,19.609,19.609,-19.609,-0.0011,-0.001,0.0056,0.002,-0.046,-0.12
1701526179.726,19.609,19.609,-19.609,-0.0014,0.0001,-0.0041,-0.003,-0.038,-0.115
1701526179.766,19.609,19.609,-19.609,-0.0015,0.0012000000000000001,-0.030100000000000002,-0.007,-0.041,-0.109
1701526179.806,19.609,19.609,-19.609,0.0009000000000000001,0.0,0.0267,-0.002,-0.04,-0.113
1701526179.846,19.609,19.609,-19.609,-0.0014,0.0006000000000000001,-0.017,0.002,-0.044,-0.121
1701526179.886,19.609,19.609,-19.609,0.0018000000000000002,-0.0004,0.048600000000000004,-0.012,-0.051000000000000004,-0.11900000000000001
1701526179.926,19.609,19.609,-19.609,-0.0021000000000000003,0.0,-0.0017000000000000001,-0.013000000000000001,-0.043000000000000003,-0.114
1701526179.966,19.609,19.609,-19.609,-0.0021000000000000003,0.0007,-0.054200000000000005,-0.009000000000000001,-0.043000000000000003,-0.121
1701526180.006,19.609,19.609,-19.609,0.0,-0.00030000000000000003,0.0417,-0.008,-0.052000000000000005,-0.127
1701526180.046,19.609,19.609,-19.609,0.0007,0.0004,-0.0038,-0.016,-0.05,-0.12
1701526180.086,19.609,19.609,-19.609,-0.0029000000000000002,-0.0009000000000000001,-0.0097,-0.004,-0.052000000000000005,-0.127
1701526180.126,19.609,19.609,-19.609,0.0,-0.0012000000000000001,-0.0025,0.001,-0.055,-0.13
1701526180.166,19.609,19.609,-19.609,-0.0009000000000000001,-0.00030000000000000003,-0.0253,0.016,-0.078,-0.133
1701526180.2059999,19.609,19.609,-19.609,0.0005,-0.0017000000000000001,0.020200000000000003,0.074,-0.14,-0.147
1701526180.246,19.609,19.609,-19.609,-0.0001,-0.0004,0.0004,0.106,-0.28300000000000003,-0.185
1701526180.286,19.609,19.609,-19.609,0.0009000000000000001,0.0006000000000000001,-0.053700000000000005,0.025,-0.40700000000000003,-0.178
1701526180.326,19.609,19.609,-19.609,0.0006000000000000001,0.00030000000000000003,0.0485,-0.094,-0.491,-0.11
1701526180.366,19.609,19.609,-19.609,0.0001,0.0019,-0.0577,-0.117,-0.425,-0.08600000000000001
1701526180.406,19.609,19.609,-19.609,-0.0001,0.0017000000000000001,0.0431,0.04,-0.36,-0.08700000000000001
1701526180.4459999,19.609,19.609,-19.609,-0.0006000000000000001,0.0006000000000000001,0.002,0.08700000000000001,-0.363,-0.078
1701526180.486,19.609,19.609,-19.609,0.0,-0.0007,-0.0161,0.08,-0.499,-0.065
1701526180.526,19.609,19.609,-19.609,0.00030000000000000003,0.00030000000000000003,-0.004,0.101,-0.625,-0.099
1701526180.566,19.609,19.609,-19.609,-0.00030000000000000003,-0.0005,-0.0325,0.117,-0.736,-0.159
1701526180.606,19.609,19.609,-19.609,-0.002,0.0018000000000000002,0.039,0.091,-0.763,-0.17400000000000002
1701526180.646,19.609,19.609,-19.609,-0.0001,-0.0017000000000000001,-0.0415,0.042,-0.75,-0.17
1701526180.6859999,19.609,19.609,-19.609,-0.0029000000000000002,-0.001,-0.0316,-0.016,-0.711,-0.162
1701526180.726,19.609,19.609,-19.609,-0.0009000000000000001,-0.0006000000000000001,0.07730000000000001,0.09,-0.40700000000000003,-0.158
1701526180.766,19.609,19.609,-19.609,-0.0013000000000000002,0.0,-0.0335,0.114,-0.31,-0.201
1701526180.806,19.609,19.609,-19.609,-0.0002,0.0,-0.0081,0.112,-0.248,-0.213
1701526180.846,19.609,19.609,-19.609,0.0007,0.0014,0.032100000000000004,0.093,-0.07100000000000001,-0.163
1701526180.886,19.609,19.609,-19.609,-0.0001,0.0007,-0.0361,0.034,0.004,-0.152
1701526180.9259999,19.609,19.609,-19.609,0.0019,0.0002,0.026600000000000002,-0.031,0.063,-0.18
1701526180.966,19.609,19.609,-19.609,0.0014,0.0014,-0.014700000000000001,-0.083,0.11800000000000001,-0.215
1701526181.006,19.609,19.609,-19.609,-0.0011,-0.0005,0.013600000000000001,-0.045,0.133,-0.193
1701526181.046,19.609,19.609,-19.609,0.0004,0.0007,-0.0327,-0.079,0.076,-0.10300000000000001
1701526181.086,19.609,19.609,-19.609,0.001,-0.0001,0.027700000000000002,-0.088,-0.062,-0.055
1701526181.126,19.609,19.609,-19.609,-0.0016,0.0018000000000000002,-0.047900000000000005,-0.013000000000000001,-0.12,-0.073
1701526181.166,19.609,19.609,-19.609,-0.0014,0.0011,0.0442,0.046,-0.109,-0.075
1701526181.206,19.609,19.609,-19.609,0.00030000000000000003,-0.0009000000000000001,-0.0318,0.061,-0.091,-0.114
1701526181.246,19.609,19.609,-19.609,0.00030000000000000003,0.0008,0.0324,0.028,-0.056,-0.152
1701526181.286,19.609,19.609,-19.609,0.001,0.0013000000000000002,-0.051500000000000004,0.01,-0.054,-0.169
1701526181.326,19.609,19.609,-19.609,0.0006000000000000001,-0.0011,0.0465,-0.068,-0.08,-0.162
1701526181.366,19.609,19.609,-19.609,-0.0012000000000000001,-0.0018000000000000002,-0.031400000000000004,-0.091,-0.109,-0.14200000000000002
1701526181.406,19.609,19.609,-19.609,0.0011,0.0,0.016300000000000002,-0.047,-0.111,-0.153
1701526181.446,19.609,19.609,-19.609,0.0006000000000000001,-0.0029000000000000002,-0.0059,-0.031,-0.122,-0.151
1701526181.486,19.609,19.609,-19.609,0.0002,-0.0014,-0.043500000000000004,-0.004,-0.067,-0.14100000000000001
1701526181.526,19.609,19.609,-19.609,0.0007,-0.0006000000000000001,0.051500000000000004,0.03,-0.016,-0.12
1701526181.566,19.609,19.609,-19.609,0.0023,-0.0011,-0.031,-0.001,0.032,-0.088
1701526181.606,19.609,19.609,-19.609,0.0005,-0.0004,0.0233,0.01,0.053,-0.075
1701526181.646,19.609,19.609,-19.609,-0.0012000000000000001,0.001,-0.0188,0.024,0.054,-0.048
1701526181.686,19.609,19.609,-19.609,0.0,-0.0007,-0.0536,0.035,0.07100000000000001,-0.054
1701526181.726,19.609,19.609,-19.609,0.0009000000000000001,0.0014,0.030500000000000003,0.034,0.091,-0.055
1701526181.766,19.609,19.609,-19.609,0.0001,0.0029000000000000002,-0.044000000000000004,0.013000000000000001,0.037,-0.063
1701526181.806,19.609,19.609,-19.609,-0.0006000000000000001,0.0004,0.0344,0.024,-0.047,-0.099
1701526181.846,19.609,19.609,-19.609,0.0007,0.0018000000000000002,-0.038,0.017,-0.054,-0.092
1701526181.886,19.609,19.609,-19.609,-0.0014,0.0005,0.009600000000000001,-0.002,-0.066,-0.098
1701526181.926,19.609,19.609,-19.609,0.0022,-0.0009000000000000001,0.023100000000000002,-0.011,-0.1,-0.12
1701526181.966,19.609,19.609,-19.609,-0.0007,-0.0018000000000000002,-0.048400000000000006,-0.021,-0.10200000000000001,-0.125
1701526182.006,19.609,19.609,-19.609,-0.0026000000000000003,-0.0001,0.0471,-0.027,-0.099,-0.14
1701526182.046,19.609,19.609,-19.609,0.0014,0.0005,-0.046900000000000004,-0.022,-0.131,-0.16
1701526182.086,19.609,19.609,-19.609,0.0,0.0015,0.0362,-0.021,-0.157,-0.162
1701526182.126,19.609,19.609,-19.609,0.0001,0.0026000000000000003,-0.021400000000000002,-0.045,-0.156,-0.165
1701526182.166,19.609,19.609,-19.609,-0.0024000000000000002,0.0,-0.0039000000000000003,-0.038,-0.153,-0.161
1701526182.2059999,19.609,19.609,-19.609,0.001,0.0006000000000000001,0.008400000000000001,-0.013000000000000001,-0.114,-0.159
1701526182.246,19.609,19.609,-19.609,0.001,0.001,-0.0279,-0.02,-0.067,-0.14
1701526182.286,19.609,19.609,-19.609,-0.0012000000000000001,0.0009000000000000001,0.0236,-0.041,-0.088,-0.14
1701526182.326,19.609,19.609,-19.609,-0.0044,-0.0015,-0.0487,-0.046,-0.084,-0.14200000000000002
1701526182.366,19.609,19.609,-19.609,0.00030000000000000003,-0.0017000000000000001,0.0443,-0.023,-0.052000000000000005,-0.123
1701526182.406,19.609,19.609,-19.609,-0.0021000000000000003,-0.00030000000000000003,-0.013300000000000001,-0.015,-0.064,-0.137
1701526182.4459999,19.609,19.609,-19.609,-0.0013000000000000002,0.0007,0.0109,-0.015,-0.038,-0.125
1701526182.486,19.609,19.609,-19.609,-0.0006000000000000001,-0.0021000000000000003,-0.0329,-0.006,-0.025,-0.124
1701526182.526,19.609,19.609,-19.609,-0.0006000000000000001,-0.0004,0.0142,0.023,-0.041,-0.124
1701526182.566,19.609,19.609,-19.609,0.0021000000000000003,0.0012000000000000001,-0.0212,-0.015,-0.045,-0.106
1701526182.606,19.609,19.609,-19.609,-0.0014,-0.0007,0.0177,-0.015,-0.064,-0.11
1701526182.646,19.609,19.609,-19.609,0.0001,-0.0008,-0.0274,-0.002,-0.059000000000000004,-0.122
1701526182.6859999,19.609,19.609,-19.609,-0.0017000000000000001,-0.00030000000000000003,0.018500000000000003,-0.031,-0.047,-0.11900000000000001
1701526182.726,19.609,19.609,-19.609,0.0,0.0012000000000000001,-0.040100000000000004,-0.01,-0.037,-0.121
1701526182.766,19.609,19.609,-19.609,0.0005,0.0004,0.039,-0.006,-0.033,-0.123
1701526182.806,19.609,19.609,-19.609,0.0025,-0.0002,-0.038400000000000004,-0.009000000000000001,-0.045,-0.12
1701526182.846,19.609,19.609,-19.609,-0.0005,0.0004,0.034,-0.009000000000000001,-0.042,-0.116
1701526182.886,19.609,19.609,-19.609,-0.0015,0.0013000000000000002,-0.046200000000000005,-0.002,-0.037,-0.109
1701526182.9259999,19.609,19.609,-19.609,0.0,-0.0015,0.0327,-0.01,-0.041,-0.114
1701526182.966,19.609,19.609,-19.609,0.0,-0.0008,-0.0313,-0.007,-0.041,-0.124
1701526183.006,19.609,19.609,-19.609,-0.0019,-0.0001,0.0349,-0.009000000000000001,-0.043000000000000003,-0.11800000000000001
1701526183.046,19.609,19.609,-19.609,0.0033,0.0016,-0.0322,0.003,-0.04,-0.105
1701526183.086,19.609,19.609,-19.609,0.00030000000000000003,-0.0018000000000000002,0.015300000000000001,0.0,-0.035,-0.11
1701526183.126,19.609,19.609,-19.609,0.0001,0.00030000000000000003,-0.010400000000000001,0.008,-0.049,-0.112
1701526183.166,19.609,19.609,-19.609,0.0014,0.0004,0.0137,0.003,-0.044,-0.101
1701526183.206,19.609,19.609,-19.609,0.001,-0.002,-0.0261,0.004,-0.041,-0.099
1701526183.246,19.609,19.609,-19.609,-0.0001,0.0001,-0.0009000000000000001,0.001,-0.045,-0.101
1701526183.286,19.609,19.609,-19.609,0.00030000000000000003,0.0006000000000000001,-0.0058000000000000005,0.011,-0.049,-0.085
1701526183.326,19.609,19.609,-19.609,-0.0014,-0.0014,-0.023700000000000002,0.025,-0.019,-0.08700000000000001
1701526183.366,19.609,19.609,-19.609,0.0,0.0,0.0357,-0.003,0.003,-0.067
1701526183.406,19.609,19.609,-19.609,-0.0006000000000000001,0.0,-0.0488,-0.038,-0.011,-0.067
1701526183.446,19.609,19.609,-19.609,-0.0018000000000000002,0.0009000000000000001,0.040100000000000004,-0.029,-0.028,-0.092
1701526183.486,19.609,19.609,-19.609,-0.001,0.00030000000000000003,-0.0241,0.009000000000000001,-0.027,-0.105
1701526183.526,19.609,19.609,-19.609,0.0,0.0005,0.012,0.001,-0.03,-0.099
1701526183.566,19.609,19.609,-19.609,-0.0004,-0.0009000000000000001,-0.0323,-0.008,-0.036000000000000004,-0.091
1701526183.606,19.609,19.609,-19.609,0.0001,0.0,0.0143,-0.011,-0.05,-0.1
1701526183.646,19.609,19.609,-19.609,0.0008,0.0036000000000000003,-0.046,-0.018000000000000002,-0.065,-0.10300000000000001
1701526183.686,19.609,19.609,-19.609,0.0014,0.0006000000000000001,0.048600000000000004,-0.012,-0.058,-0.117
1701526183.726,19.609,19.609,-19.609,0.0021000000000000003,0.0015,-0.0495,0.0,-0.037,-0.115
1701526183.766,19.609,19.609,-19.609,-0.0001,0.0017000000000000001,0.0444,0.002,-0.02,-0.099
1701526183.806,19.609,19.609,-19.609,-0.0004,-0.0016,-0.0346,0.01,-0.014,-0.1
1701526183.846,19.609,19.609,-19.609,0.0015,0.0012000000000000001,0.0335,0.0,-0.023,-0.089
1701526183.886,19.609,19.609,-19.609,-0.00030000000000000003,0.0004,-0.0302,0.012,-0.026000000000000002,-0.091
1701526183.926,19.609,19.609,-19.609,0.0005,0.0,0.016,-0.002,-0.012,-0.098
1701526183.966,19.609,19.609,-19.609,-0.0013000000000000002,0.0014,-0.0328,0.002,-0.016,-0.109
1701526184.006,19.609,19.609,-19.609,-0.001,0.0009000000000000001,0.0302,-0.005,-0.013000000000000001,-0.105
1701526184.046,19.609,19.609,-19.609,0.001,0.0001,-0.026500000000000003,-0.012,0.0,-0.101
1701526184.086,19.609,19.609,-19.609,-0.0006000000000000001,0.0026000000000000003,0.0038,0.007,-0.024,-0.098
1701526184.126,19.609,19.609,-19.609,0.00030000000000000003,-0.00030000000000000003,-0.0218,-0.013000000000000001,-0.031,-0.1
1701526184.166,19.609,19.609,-19.609,0.0009000000000000001,-0.0002,-0.0516,0.001,-0.028,-0.107
1701526184.2059999,19.609,19.609,-19.609,-0.002,-0.0014,0.06330000000000001,0.006,-0.036000000000000004,-0.101
1701526184.246,19.609,19.609,-19.609,0.0011,-0.0012000000000000001,-0.033600000000000005,0.004,-0.062,-0.105
1701526184.286,19.609,19.609,-19.609,-0.001,-0.0007,0.022600000000000002,0.012,-0.066,-0.108
1701526184.326,19.609,19.609,-19.609,0.0005,0.0009000000000000001,-0.0238,0.022,-0.048,-0.109
1701526184.366,19.609,19.609,-19.609,0.0007,-0.0006000000000000001,0.024200000000000003,0.009000000000000001,-0.04,-0.098
1701526184.406,19.609,19.609,-19.609,-0.0006000000000000001,-0.0012000000000000001,-0.023100000000000002,0.018000000000000002,-0.048,-0.105
1701526184.4459999,19.609,19.609,-19.609,0.0007,-0.002,-0.0374,0.019,-0.051000000000000004,-0.098
1701526184.486,19.609,19.609,-19.609,-0.0011,0.0015,0.0456,0.021,-0.054,-0.099
1701526184.526,19.609,19.609,-19.609,-0.0007,0.0011,-0.038700000000000005,0.054,-0.011,-0.082
1701526184.566,19.609,19.609,-19.609,-0.0015,0.0025,0.0369,0.001,-0.012,-0.06
1701526184.606,19.609,19.609,-19.609,0.0009000000000000001,-0.00030000000000000003,-0.0466,-0.014,-0.065,-0.107
1701526184.646,19.609,19.609,-19.609,-0.0017000000000000001,0.0001,0.035,-0.001,-0.068,-0.124
1701526184.6859999,19.609,19.609,-19.609,0.0001,0.0,-0.0456,0.005,-0.043000000000000003,-0.1
1701526184.726,19.609,19.609,-19.609,0.0,0.0031000000000000003,0.039,0.013000000000000001,-0.042,-0.089
1701526184.766,19.609,19.609,-19.609,0.0004,-0.0004,0.0009000000000000001,-0.001,-0.048,-0.093
1701526184.806,19.609,19.609,-19.609,0.0021000000000000003,0.0019,-0.0463,-0.011,-0.066,-0.101
1701526184.846,19.609,19.609,-19.609,-0.0012000000000000001,-0.0022,0.020200000000000003,0.023,-0.063,-0.111
1701526184.886,19.609,19.609,-19.609,0.0013000000000000002,0.004200000000000001,0.006200000000000001,0.004,-0.05,-0.094
1701526184.9259999,19.609,19.609,-19.609,-0.0004,0.0016,0.0131,-0.01,-0.048,-0.092
1701526184.966,19.609,19.609,-19.609,0.0006000000000000001,-0.0001,-0.016300000000000002,0.002,-0.036000000000000004,-0.10200000000000001
1701526185.006,19.609,19.609,-19.609,0.0014,-0.0012000000000000001,-0.0015,0.01,-0.034,-0.101
1701526185.046,19.609,19.609,-19.609,-0.0004,-0.0015,-0.00030000000000000003,-0.007,-0.038,-0.107
1701526185.086,19.609,19.609,-19.609,-0.00030000000000000003,0.0011,-0.0037,-0.021,-0.055,-0.113
1701526185.126,19.609,19.609,-19.609,-0.0002,-0.0007,0.0111,-0.015,-0.064,-0.128
1701526185.166,19.609,19.609,-19.609,-0.0014,0.0004,-0.0444,-0.016,-0.057,-0.135
1701526185.206,19.609,19.609,-19.609,0.0047,0.0023,0.020200000000000003,-0.026000000000000002,-0.063,-0.14300000000000002
1701526185.246,19.609,19.609,-19.609,0.0015,0.0001,-0.0114,-0.036000000000000004,-0.059000000000000004,-0.14300000000000002
1701526185.286,19.609,19.609,-19.609,0.0019,0.0018000000000000002,0.0164,-0.047,-0.077,-0.155
1701526185.326,19.609,19.609,-19.609,-0.0009000000000000001,0.0031000000000000003,-0.027600000000000003,-0.042,-0.08,-0.158
1701526185.366,19.609,19.609,-19.609,0.0007,-0.001,-0.021,-0.026000000000000002,-0.069,-0.164
1701526185.406,19.609,19.609,-19.609,-0.0009000000000000001,-0.0016,0.075,-0.018000000000000002,-0.054,-0.152
1701526185.446,19.609,19.609,-19.609,-0.001,0.0006000000000000001,-0.0526,-0.019,-0.048,-0.153
1701526185.486,19.609,19.609,-19.609,0.00030000000000000003,0.0009000000000000001,0.0458,-0.02,-0.044,-0.149
1701526185.526,19.609,19.609,-19.609,0.0005,0.001,-0.029,-0.026000000000000002,-0.041,-0.132
1701526185.566,19.609,19.609,-19.609,0.0019,0.0015,0.0199,-0.018000000000000002,-0.044,-0.139
1701526185.606,19.609,19.609,-19.609,-0.0006000000000000001,-0.0001,-0.0194,-0.03,-0.05,-0.145
1701526185.646,19.609,19.609,-19.609,0.0001,0.0004,0.0058000000000000005,-0.028,-0.045,-0.134
1701526185.686,19.609,19.609,-19.609,0.0013000000000000002,-0.0007,-0.046900000000000004,-0.034,-0.026000000000000002,-0.128
1701526185.726,19.609,19.609,-19.609,-0.0017000000000000001,0.001,0.0551,-0.025,-0.028,-0.12
1701526185.766,19.609,19.609,-19.609,-0.0006000000000000001,-0.0009000000000000001,-0.0241,-0.017,-0.045,-0.122
1701526185.806,19.609,19.609,-19.609,-0.002,0.0001,-0.0012000000000000001,-0.012,-0.042,-0.116
1701526185.846,19.609,19.609,-19.609,-0.0002,-0.0001,-0.0083,-0.003,-0.044,-0.117
1701526185.886,19.609,19.609,-19.609,-0.0007,-0.0004,0.007500000000000001,-0.019,-0.059000000000000004,-0.122
1701526185.926,19.609,19.609,-19.609,0.0,0.0021000000000000003,-0.037200000000000004,-0.002,-0.073,-0.116
1701526185.966,19.609,19.609,-19.609,-0.0025,-0.0012000000000000001,0.0361,-0.002,-0.052000000000000005,-0.12
1701526186.006,19.609,19.609,-19.609,0.0012000000000000001,-0.0002,-0.049300000000000004,-0.006,-0.056,-0.112
1701526186.046,19.609,19.609,-19.609,0.0,-0.0004,0.0422,-0.016,-0.059000000000000004,-0.117
1701526186.086,19.609,19.609,-19.609,0.0004,-0.0021000000000000003,-0.025400000000000002,-0.006,-0.051000000000000004,-0.121
1701526186.126,19.609,19.609,-19.609,0.0015,-0.0012000000000000001,0.003,-0.005,-0.052000000000000005,-0.117
1701526186.166,19.609,19.609,-19.609,-0.0031000000000000003,0.0009000000000000001,-0.0195,-0.02,-0.043000000000000003,-0.122
1701526186.2059999,19.609,19.609,-19.609,0.0008,0.0016,0.026500000000000003,-0.007,-0.033,-0.124
1701526186.246,19.609,19.609,-19.609,0.0013000000000000002,-0.0017000000000000001,-0.0431,0.003,-0.051000000000000004,-0.125
1701526186.286,19.609,19.609,-19.609,-0.0022,0.0004,0.038900000000000004,-0.007,-0.042,-0.115
1701526186.326,19.609,19.609,-19.609,0.0014,0.0016,-0.0409,-0.01,-0.022,-0.109
1701526186.366,19.609,19.609,-19.609,-0.0025,-0.0017000000000000001,0.0308,0.005,-0.037,-0.117
1701526186.406,19.609,19.609,-19.609,-0.0006000000000000001,0.0004,-0.050800000000000005,0.009000000000000001,-0.048,-0.107
1701526186.4459999,19.609,19.609,-19.609,0.0001,-0.0017000000000000001,0.057600000000000005,0.0,-0.046,-0.107
1701526186.486,19.609,19.609,-19.609,0.003,0.001,-0.024800000000000003,0.007,-0.02,-0.092
1701526186.526,19.609,19.609,-19.609,-0.0018000000000000002,-0.0007,-0.0066,-0.006,0.002,-0.074
1701526186.566,19.609,19.609,-19.609,-0.0029000000000000002,-0.0012000000000000001,0.020300000000000002,-0.011,-0.012,-0.088
1701526186.606,19.609,19.609,-19.609,0.0002,0.0001,-0.0036000000000000003,0.007,-0.037,-0.098
1701526186.646,19.609,19.609,-19.609,-0.0018000000000000002,-0.001,-0.0339,0.006,-0.024,-0.089
1701526186.6859999,19.609,19.609,-19.609,-0.001,-0.0004,0.0345,-0.004,-0.028,-0.093
1701526186.726,19.609,19.609,-19.609,-0.0018000000000000002,0.0018000000000000002,-0.04,-0.009000000000000001,-0.038,-0.094
1701526186.766,19.609,19.609,-19.609,0.0001,0.0029000000000000002,0.0332,-0.006,-0.041,-0.10300000000000001
1701526186.806,19.609,19.609,-19.609,0.0009000000000000001,0.0,-0.0361,0.007,-0.042,-0.117
1701526186.846,19.609,19.609,-19.609,0.0001,0.0006000000000000001,0.0057,-0.004,-0.035,-0.112
1701526186.886,19.609,19.609,-19.609,0.0026000000000000003,0.001,0.010400000000000001,-0.008,-0.055,-0.113
1701526186.9259999,19.609,19.609,-19.609,-0.0009000000000000001,-0.0004,-0.0028,0.0,-0.05,-0.117
1701526186.966,19.609,19.609,-19.609,-0.0005,-0.0016,-0.0268,-0.002,-0.047,-0.12
1701526187.006,19.609,19.609,-19.609,0.0,-0.002,0.030100000000000002,-0.001,-0.042,-0.111
1701526187.046,19.609,19.609,-19.609,-0.0043,0.0025,-0.0346,0.001,-0.025,-0.10300000000000001
1701526187.086,19.609,19.609,-19.609,-0.0021000000000000003,-0.0006000000000000001,0.023,-0.001,-0.011,-0.1
1701526187.126,19.609,19.609,-19.609,0.0007,-0.0017000000000000001,-0.054,-0.01,-0.017,-0.111
1701526187.166,19.609,19.609,-19.609,-0.0001,0.0015,-0.023700000000000002,-0.007,-0.044,-0.107
1701526187.206,19.609,19.609,-19.609,0.0008,0.0023,-0.004,0.006,-0.041,-0.117
1701526187.246,19.609,19.609,-19.609,-0.0015,-0.0004,-0.0407,0.003,-0.04,-0.123
1701526187.286,19.609,19.609,-19.609,-0.0012000000000000001,0.0006000000000000001,0.0386,-0.003,-0.03,-0.107
1701526187.326,19.609,19.609,-19.609,0.0004,0.0007,-0.043300000000000005,-0.003,-0.02,-0.1
1701526187.366,19.609,19.609,-19.609,-0.00030000000000000003,0.0,0.0307,0.007,-0.025,-0.106
1701526187.406,19.609,19.609,-19.609,-0.0029000000000000002,0.0016,-0.0224,0.0,-0.032,-0.1
1701526187.446,19.609,19.609,-19.609,0.0,-0.0011,0.0267,-0.001,-0.029,-0.097
1701526187.486,19.609,19.609,-19.609,0.0005,-0.0007,-0.0375,0.009000000000000001,-0.036000000000000004,-0.114
1701526187.526,19.609,19.609,-19.609,-0.0012000000000000001,-0.0011,0.0298,-0.005,-0.045,-0.10300000000000001
1701526187.566,19.609,19.609,-19.609,0.0018000000000000002,0.0022,-0.054900000000000004,0.005,-0.039,-0.10300000000000001
1701526187.606,19.609,19.609,-19.609,-0.0008,0.0025,0.0424,0.007,-0.02,-0.095
1701526187.646,19.609,19.609,-19.609,0.0014,0.0027,-0.0325,0.004,-0.02,-0.092
1701526187.686,19.609,19.609,-19.609,-0.0022,0.0007,0.0233,0.0,-0.023,-0.10200000000000001
1701526187.726,19.609,19.609,-19.609,0.00030000000000000003,0.0004,-0.0364,0.0,-0.026000000000000002,-0.1
1701526187.766,19.609,19.609,-19.609,-0.0006000000000000001,0.0,0.0303,0.004,-0.034,-0.107
1701526187.806,19.609,19.609,-19.609,-0.0015,0.0023,-0.0386,0.018000000000000002,-0.021,-0.101
1701526187.846,19.609,19.609,-19.609,-0.0016,0.0016,0.0264,0.0,-0.012,-0.09
1701526187.886,19.609,19.609,-19.609,0.0021000000000000003,0.0012000000000000001,-0.042,-0.011,-0.009000000000000001,-0.10300000000000001
1701526187.926,19.609,19.609,-19.609,0.0008,-0.0007,0.0378,-0.001,-0.018000000000000002,-0.115
1701526187.966,19.609,19.609,-19.609,-0.0002,0.0013000000000000002,-0.036500000000000005,-0.001,-0.02,-0.115
1701526188.006,19.609,19.609,-19.609,-0.0009000000000000001,0.0026000000000000003,0.028800000000000003,-0.001,-0.032,-0.098
1701526188.046,19.609,19.609,-19.609,-0.0007,0.0024000000000000002,0.0049,-0.007,-0.033,-0.107
1701526188.086,19.609,19.609,-19.609,-0.0007,0.0004,-0.008700000000000001,-0.006,-0.035,-0.101
1701526188.126,19.609,19.609,-19.609,0.0015,-0.0015,-0.0383,-0.003,-0.024,-0.096
1701526188.166,19.609,19.609,-19.609,-0.0007,0.0012000000000000001,0.0349,-0.001,-0.011,-0.1
1701526188.2059999,19.609,19.609,-19.609,-0.0026000000000000003,-0.0008,-0.0378,-0.014,-0.016,-0.107
1701526188.246,19.609,19.609,-19.609,-0.0008,0.0039000000000000003,0.0303,-0.011,-0.023,-0.112
1701526188.286,19.609,19.609,-19.609,0.0006000000000000001,-0.0009000000000000001,-0.042100000000000005,0.0,-0.045,-0.115
1701526188.326,19.609,19.609,-19.609,0.0013000000000000002,0.0014,0.0297,-0.016,-0.051000000000000004,-0.124
1701526188.366,19.609,19.609,-19.609,0.0014,0.0001,-0.033,-0.034,-0.08600000000000001,-0.124
1701526188.406,19.609,19.609,-19.609,-0.0022,0.0,0.029900000000000003,-0.029,-0.061,-0.113
1701526188.4459999,19.609,19.609,-19.609,-0.0012000000000000001,-0.0039000000000000003,-0.0397,0.013000000000000001,-0.054,-0.13
1701526188.486,19.609,19.609,-19.609,0.0011,-0.00030000000000000003,0.0363,-0.02,-0.045,-0.139
1701526188.526,19.609,19.609,-19.609,0.0021000000000000003,-0.002,-0.029400000000000003,-0.05,0.017,-0.166
1701526188.566,19.609,19.609,-19.609,-0.0025,0.0015,0.0046,0.003,0.063,-0.181
1701526188.606,19.609,19.609,-19.609,-0.00030000000000000003,-0.002,0.0161,0.022,0.079,-0.159
1701526188.646,19.609,19.609,-19.609,0.0046,0.0014,-0.0303,-0.001,0.079,-0.17400000000000002
1701526188.6859999,19.609,19.609,-19.609,0.0007,-0.0019,0.0238,-0.058,0.018000000000000002,-0.193
1701526188.726,19.609,19.609,-19.609,0.0006000000000000001,-0.0028,-0.040600000000000004,-0.114,0.006,-0.17
1701526188.766,19.609,19.609,-19.609,-0.0011,-0.0001,0.036500000000000005,-0.197,0.09,-0.128
1701526188.806,19.609,19.609,-19.609,-0.0023,0.001,-0.0222,-0.194,0.138,-0.10400000000000001
1701526188.846,19.609,19.609,-19.609,-0.0006000000000000001,0.0017000000000000001,0.0038,-0.128,0.183,-0.132
1701526188.886,19.609,19.609,-19.609,-0.0012000000000000001,0.0028,-0.0109,-0.099,0.20400000000000001,-0.151
1701526188.9259999,19.609,19.609,-19.609,0.0014,0.0002,0.0284,-0.11900000000000001,0.229,-0.15
1701526188.966,19.609,19.609,-19.609,0.0016,0.0005,0.0126,-0.17300000000000001,0.281,-0.092
1701526189.006,19.609,19.609,-19.609,0.0001,0.0004,-0.049800000000000004,-0.224,0.331,-0.025
1701526189.046,19.609,19.609,-19.609,-0.0032,0.0001,0.020200000000000003,-0.194,0.41000000000000003,0.023
1701526189.086,19.609,19.609,-19.609,-0.0014,-0.00030000000000000003,-0.0016,-0.077,0.358,-0.022
1701526189.126,19.609,19.609,-19.609,0.0006000000000000001,0.0007,-0.0045000000000000005,-0.032,0.277,-0.041
1701526189.166,19.609,19.609,-19.609,-0.0026000000000000003,0.0007,0.0099,-0.055,0.181,-0.054
1701526189.206,19.609,19.609,-19.609,-0.0006000000000000001,-0.0005,-0.039900000000000005,-0.043000000000000003,0.152,-0.054
1701526189.246,19.609,19.609,-19.609,0.0014,-0.0027,0.0213,-0.006,0.10300000000000001,-0.076
1701526189.286,19.609,19.609,-19.609,0.0009000000000000001,0.00030000000000000003,0.008700000000000001,0.012,0.051000000000000004,-0.098
1701526189.326,19.609,19.609,-19.609,0.0015,-0.00030000000000000003,-0.051000000000000004,0.016,0.015,-0.092
1701526189.366,19.609,19.609,-19.609,-0.001,-0.0008,0.0374,0.0,0.001,-0.095
1701526189.406,19.609,19.609,-19.609,-0.0006000000000000001,0.00030000000000000003,-0.0123,-0.009000000000000001,-0.002,-0.099
1701526189.446,19.609,19.609,-19.609,-0.0023,-0.001,0.012700000000000001,-0.009000000000000001,-0.009000000000000001,-0.107
1701526189.486,19.609,19.609,-19.609,-0.0024000000000000002,-0.0004,-0.0224,-0.025,-0.004,-0.108
1701526189.526,19.609,19.609,-19.609,-0.0006000000000000001,-0.0004,0.0007,-0.018000000000000002,-0.029,-0.109
1701526189.566,19.609,19.609,-19.609,0.0011,0.0,0.018500000000000003,-0.001,-0.029,-0.093
1701526189.606,19.609,19.609,-19.609,-0.0008,-0.0007,0.0001,0.0,-0.036000000000000004,-0.092
1701526189.646,19.609,19.609,-19.609,0.0008,-0.0007,-0.0391,-0.001,-0.035,-0.1
1701526189.686,19.609,19.609,-19.609,0.0002,-0.0007,0.0252,-0.003,-0.051000000000000004,-0.10300000000000001
1701526189.726,19.609,19.609,-19.609,0.0012000000000000001,0.0014,-0.0109,-0.006,-0.058,-0.10200000000000001
1701526189.766,19.609,19.609,-19.609,-0.0017000000000000001,0.001,0.0026000000000000003,-0.004,-0.046,-0.095
1701526189.806,19.609,19.609,-19.609,-0.0007,-0.0001,-0.0434,0.001,-0.042,-0.113
1701526189.846,19.609,19.609,-19.609,-0.0009000000000000001,-0.002,0.0427,0.004,-0.055,-0.10200000000000001
1701526189.886,19.609,19.609,-19.609,0.0019,0.0004,-0.0417,0.009000000000000001,-0.049,-0.1
1701526189.926,19.609,19.609,-19.609,-0.00030000000000000003,-0.0009000000000000001,0.0328,0.003,-0.049,-0.108
1701526189.966,19.609,19.609,-19.609,-0.0012000000000000001,0.00030000000000000003,-0.049800000000000004,0.001,-0.047,-0.117
1701526190.006,19.609,19.609,-19.609,0.0014,0.0,0.040400000000000005,-0.02,-0.051000000000000004,-0.11800000000000001
1701526190.046,19.609,19.609,-19.609,-0.0006000000000000001,0.0,-0.0533,-0.014,-0.043000000000000003,-0.127
1701526190.086,19.609,19.609,-19.609,-0.0005,0.0018000000000000002,0.041800000000000004,0.005,-0.038,-0.124
1701526190.126,19.609,19.609,-19.609,0.005,0.00030000000000000003,-0.0082,0.027,-0.047,-0.126
1701526190.166,19.609,19.609,-19.609,0.0001,-0.0014,0.0102,-0.001,-0.048,-0.132
1701526190.2059999,19.609,19.609,-19.609,-0.0027,0.0016,-0.0427,-0.006,-0.062,-0.136
1701526190.246,19.609,19.609,-19.609,0.0017000000000000001,-0.0005,0.0324,-0.016,-0.053,-0.14100000000000001
1701526190.286,19.609,19.609,-19.609,-0.0012000000000000001,0.0004,-0.018000000000000002,-0.022,-0.058,-0.134
1701526190.326,19.609,19.609,-19.609,-0.0001,-0.0015,0.0081,-0.013000000000000001,-0.039,-0.133
1701526190.366,19.609,19.609,-19.609,0.0004,-0.0012000000000000001,0.0097,-0.012,-0.026000000000000002,-0.125
1701526190.406,19.609,19.609,-19.609,0.0004,0.0014,-0.045200000000000004,-0.012,-0.026000000000000002,-0.117
1701526190.4459999,19.609,19.609,-19.609,-0.0028,0.0001,0.0313,-0.012,-0.027,-0.129
1701526190.486,19.609,19.609,-19.609,-0.0007,0.0012000000000000001,-0.012,-0.013000000000000001,-0.036000000000000004,-0.13
1701526190.526,19.609,19.609,-19.609,-0.0034000000000000002,-0.001,-0.0083,-0.02,-0.033,-0.135
1701526190.566,19.609,19.609,-19.609,-0.0013000000000000002,0.0012000000000000001,-0.0223,-0.012,-0.023,-0.127
1701526190.606,19.609,19.609,-19.609,0.0019,0.0011,0.0344,-0.012,-0.038,-0.137
1701526190.646,19.609,19.609,-19.609,0.0007,0.0004,-0.0509,-0.022,-0.043000000000000003,-0.115
1701526190.6859999,19.609,19.609,-19.609,0.0001,-0.0001,0.0419,-0.008,-0.039,-0.1
1701526190.726,19.609,19.609,-19.609,-0.0004,0.0001,-0.019700000000000002,0.014,-0.046,-0.111
1701526190.766,19.609,19.609,-19.609,0.0008,-0.0005,-0.0395,0.002,-0.057,-0.113
1701526190.806,19.609,19.609,-19.609,-0.0013000000000000002,0.0006000000000000001,-0.0017000000000000001,-0.006,-0.062,-0.10300000000000001
1701526190.846,19.609,19.609,-19.609,-0.0036000000000000003,0.0014,-0.0004,0.004,-0.063,-0.106
1701526190.886,19.609,19.609,-19.609,-0.0005,-0.0007,-0.0001,0.007,-0.04,-0.114
1701526190.9259999,19.609,19.609,-19.609,-0.0023,0.0018000000000000002,-0.0407,-0.005,-0.04,-0.11900000000000001
1701526190.966,19.609,19.609,-19.609,-0.0017000000000000001,0.0,0.013900000000000001,-0.021,-0.043000000000000003,-0.11800000000000001
1701526191.006,19.609,19.609,-19.609,0.0,0.0015,0.0103,-0.022,-0.046,-0.11800000000000001
1701526191.046,19.609,19.609,-19.609,-0.0009000000000000001,-0.0006000000000000001,-0.039,-0.008,-0.05,-0.116
1701526191.086,19.609,19.609,-19.609,-0.0028,0.0002,0.0251,0.002,-0.046,-0.116
1701526191.126,19.609,19.609,-19.609,0.0014,-0.0001,0.007,0.0,-0.045,-0.124
1701526191.166,19.609,19.609,-19.609,0.0001,-0.0001,-0.0335,-0.01,-0.043000000000000003,-0.121
1701526191.206,19.609,19.609,-19.609,-0.0014,-0.0015,0.0227,0.002,-0.045,-0.116
1701526191.246,19.609,19.609,-19.609,-0.0009000000000000001,0.0001,-0.0219,0.0,-0.049,-0.124
1701526191.286,19.609,19.609,-19.609,0.0,0.0004,-0.0128,-0.005,-0.05,-0.132
1701526191.326,19.609,19.609,-19.609,-0.0004,0.00030000000000000003,0.024,-0.014,-0.037,-0.12
1701526191.366,19.609,19.609,-19.609,-0.0029000000000000002,0.0,-0.047,-0.007,-0.037,-0.124
1701526191.406,19.609,19.609,-19.609,-0.002,0.0,0.029,-0.016,-0.038,-0.12
1701526191.446,19.609,19.609,-19.609,0.0002,0.0028,0.008400000000000001,-0.015,-0.044,-0.114
1701526191.486,19.609,19.609,-19.609,-0.0007,-0.001,-0.052000000000000005,-0.005,-0.039,-0.117
1701526191.526,19.609,19.609,-19.609,0.00030000000000000003,-0.0006000000000000001,0.0349,-0.003,-0.035,-0.121
1701526191.566,19.609,19.609,-19.609,-0.0043,0.0015,-0.007500000000000001,0.02,-0.039,-0.12
1701526191.606,19.609,19.609,-19.609,0.0027,-0.0001,0.0095,0.003,-0.047,-0.10400000000000001
1701526191.646,19.609,19.609,-19.609,-0.0008,0.0004,-0.0332,0.016,-0.05,-0.111
1701526191.686,19.609,19.609,-19.609,-0.002,-0.0013000000000000002,0.0221,-0.008,-0.046,-0.106
1701526191.726,19.609,19.609,-19.609,0.0006000000000000001,0.0011,-0.0374,0.001,-0.04,-0.10200000000000001
1701526191.766,19.609,19.609,-19.609,0.0001,0.0,0.030000000000000002,0.006,-0.027,-0.11
1701526191.806,19.609,19.609,-19.609,-0.0006000000000000001,0.0031000000000000003,-0.0079,-0.002,-0.045,-0.11900000000000001
1701526191.846,19.609,19.609,-19.609,-0.00030000000000000003,0.0015,-0.0291,-0.015,-0.048,-0.114
1701526191.886,19.609,19.609,-19.609,-0.0005,0.001,0.0298,-0.009000000000000001,-0.058,-0.11900000000000001
1701526191.926,19.609,19.609,-19.609,0.0017000000000000001,-0.0018000000000000002,-0.0379,-0.008,-0.054,-0.116
1701526191.966,19.609,19.609,-19.609,-0.0016,-0.0033,0.031900000000000005,-0.011,-0.043000000000000003,-0.111
1701526192.006,19.609,19.609,-19.609,0.0009000000000000001,-0.0018000000000000002,-0.0388,-0.011,-0.041,-0.11
1701526192.046,19.609,19.609,-19.609,0.0,-0.0001,-0.0028,-0.011,-0.038,-0.121
1701526192.086,19.609,19.609,-19.609,0.0018000000000000002,0.0028,0.0241,-0.029,-0.034,-0.11900000000000001
1701526192.126,19.609,19.609,-19.609,0.0034000000000000002,-0.0021000000000000003,0.0048000000000000004,-0.002,-0.029,-0.11800000000000001
1701526192.166,19.609,19.609,-19.609,0.0009000000000000001,-0.0019,-0.0339,0.01,-0.027,-0.12
1701526192.2059999,19.609,19.609,-19.609,-0.0001,0.0002,0.0194,0.005,-0.04,-0.123
1701526192.246,19.609,19.609,-19.609,-0.0006000000000000001,0.0,-0.026600000000000002,0.0,-0.054,-0.112
1701526192.286,19.609,19.609,-19.609,-0.0012000000000000001,0.0015,0.018600000000000002,0.0,-0.044,-0.108
1701526192.326,19.609,19.609,-19.609,-0.0017000000000000001,0.0004,-0.0456,0.005,-0.049,-0.101
1701526192.366,19.609,19.609,-19.609,-0.0018000000000000002,0.0023,0.0386,0.013000000000000001,-0.061,-0.109
1701526192.406,19.609,19.609,-19.609,-0.0019,-0.0009000000000000001,-0.0417,0.008,-0.049,-0.109
1701526192.4459999,19.609,19.609,-19.609,-0.0014,0.0017000000000000001,0.0318,0.01,-0.046,-0.108
1701526192.486,19.609,19.609,-19.609,0.00030000000000000003,-0.0017000000000000001,-0.026600000000000002,-0.003,-0.042,-0.109
1701526192.526,19.609,19.609,-19.609,-0.0028,0.0006000000000000001,0.0128,-0.008,-0.044,-0.108
1701526192.566,19.609,19.609,-19.609,-0.0028,-0.0014,0.0228,0.002,-0.041,-0.107
1701526192.606,19.609,19.609,-19.609,0.0007,0.0002,0.008400000000000001,0.008,-0.036000000000000004,-0.106
1701526192.646,19.609,19.609,-19.609,0.0022,-0.0001,-0.042300000000000004,0.001,-0.045,-0.12
1701526192.6859999,19.609,19.609,-19.609,-0.0017000000000000001,-0.0004,0.0346,0.0,-0.049,-0.111
1701526192.726,19.609,19.609,-19.609,-0.0012000000000000001,0.0001,-0.0451,0.003,-0.053,-0.115
1701526192.766,19.609,19.609,-19.609,0.004,0.0005,0.042,0.009000000000000001,-0.051000000000000004,-0.11
1701526192.806,19.609,19.609,-19.609,-0.0006000000000000001,-0.0017000000000000001,-0.049,0.005,-0.057,-0.109
1701526192.846,19.609,19.609,-19.609,0.0008,0.0,0.0335,0.018000000000000002,-0.065,-0.121
1701526192.886,19.609,19.609,-19.609,-0.004,0.0004,-0.0623,0.013000000000000001,-0.058,-0.114
1701526192.9259999,19.609,19.609,-19.609,-0.0004,-0.0007,0.0318,0.006,-0.059000000000000004,-0.107
1701526192.966,19.609,19.609,-19.609,-0.0024000000000000002,0.0008,0.0274,0.008,-0.064,-0.117
1701526193.006,19.609,19.609,-19.609,0.0015,-0.0005,-0.018600000000000002,0.009000000000000001,-0.058,-0.109
1701526193.046,19.609,19.609,-19.609,0.00030000000000000003,-0.0013000000000000002,-0.0461,0.005,-0.061,-0.111
1701526193.086,19.609,19.609,-19.609,-0.0004,-0.0012000000000000001,0.0432,0.009000000000000001,-0.064,-0.114
1701526193.126,19.609,19.609,-19.609,-0.0008,0.0008,-0.037200000000000004,0.006,-0.059000000000000004,-0.115
1701526193.166,19.609,19.609,-19.609,0.001,-0.0023,0.0264,-0.001,-0.052000000000000005,-0.111
1701526193.206,19.609,19.609,-19.609,0.0002,0.0007,-0.031100000000000003,-0.001,-0.054,-0.12
1701526193.246,19.609,19.609,-19.609,0.0009000000000000001,-0.0034000000000000002,0.031900000000000005,0.007,-0.055,-0.127
1701526193.286,19.609,19.609,-19.609,0.0013000000000000002,-0.0007,-0.037200000000000004,0.021,-0.066,-0.117
1701526193.326,19.609,19.609,-19.609,0.00030000000000000003,0.0004,0.014700000000000001,0.001,-0.066,-0.124
1701526193.366,19.609,19.609,-19.609,0.0001,-0.0009000000000000001,-0.042100000000000005,0.051000000000000004,-0.061,-0.114
1701526193.406,19.609,19.609,-19.609,0.0005,-0.0005,0.027200000000000002,0.081,-0.062,-0.116
1701526193.446,19.609,19.609,-19.609,-0.0012000000000000001,-0.0001,0.002,0.098,-0.062,-0.107
1701526193.486,19.609,19.609,-19.609,-0.002,0.0001,-0.0505,0.159,-0.07,-0.116
1701526193.526,19.609,19.609,-19.609,-0.0007,0.003,0.0333,0.15,-0.065,-0.127
1701526193.566,19.609,19.609,-19.609,0.0004,-0.0004,-0.0395,0.132,-0.059000000000000004,-0.111
1701526193.606,19.609,19.609,-19.609,0.0005,-0.0004,0.0412,0.07200000000000001,-0.053,-0.10300000000000001
1701526193.646,19.609,19.609,-19.609,-0.0014,-0.0014,-0.018600000000000002,0.025,-0.054,-0.10400000000000001
1701526193.686,19.609,19.609,-19.609,-0.0022,-0.0004,-0.039900000000000005,-0.024,-0.064,-0.111
1701526193.726,19.609,19.609,-19.609,-0.0026000000000000003,-0.0028,0.0351,-0.034,-0.069,-0.106
1701526193.766,19.609,19.609,-19.609,0.001,0.0008,-0.034800000000000005,-0.048,-0.054,-0.114
1701526193.806,19.609,19.609,-19.609,-0.0045000000000000005,0.0012000000000000001,0.0347,-0.048,-0.035,-0.122
1701526193.846,19.609,19.609,-19.609,0.0013000000000000002,-0.0015,-0.0349,-0.047,-0.024,-0.10400000000000001
1701526193.886,19.609,19.609,-19.609,0.0006000000000000001,-0.0001,0.015700000000000002,-0.038,-0.014,-0.105
1701526193.926,19.609,19.609,-19.609,0.001,0.0025,0.0198,-0.018000000000000002,-0.014,-0.114
1701526193.966,19.609,19.609,-19.609,0.0006000000000000001,0.0006000000000000001,-0.015700000000000002,-0.014,-0.026000000000000002,-0.12
1701526194.006,19.609,19.609,-19.609,0.0002,-0.0001,0.0006000000000000001,-0.008,-0.03,-0.127
1701526194.046,19.609,19.609,-19.609,0.0004,0.0002,-0.013300000000000001,-0.014,-0.016,-0.117
1701526194.086,19.609,19.609,-19.609,0.0001,-0.0011,-0.007200000000000001,-0.007,-0.035,-0.124
1701526194.126,19.609,19.609,-19.609,0.0037,0.0,0.015000000000000001,-0.003,-0.038,-0.11800000000000001
1701526194.166,19.609,19.609,-19.609,0.0015,-0.0006000000000000001,-0.0123,0.008,-0.046,-0.113
1701526194.2059999,19.609,19.609,-19.609,0.003,0.0011,0.0035,0.005,-0.046,-0.117
1701526194.246,19.609,19.609,-19.609,-0.0012000000000000001,0.0007,-0.0419,0.007,-0.047,-0.12
1701526194.286,19.609,19.609,-19.609,-0.0006000000000000001,-0.0004,0.037700000000000004,0.001,-0.047,-0.121
1701526194.326,19.609,19.609,-19.609,-0.0032,0.0008,0.013000000000000001,-0.017,-0.036000000000000004,-0.124
1701526194.366,19.609,19.609,-19.609,-0.0001,-0.00030000000000000003,-0.0563,-0.008,-0.032,-0.109
1701526194.406,19.609,19.609,-19.609,-0.0018000000000000002,0.00030000000000000003,-0.0427,0.002,-0.034,-0.109
1701526194.4459999,19.609,19.609,-19.609,0.00030000000000000003,0.0016,0.021400000000000002,-0.004,-0.047,-0.125
1701526194.486,19.609,19.609,-19.609,-0.0014,-0.0004,-0.0021000000000000003,-0.027,-0.045,-0.113
1701526194.526,19.609,19.609,-19.609,0.0008,-0.0004,0.0236,-0.023,-0.041,-0.10400000000000001
1701526194.566,19.609,19.609,-19.609,-0.0017000000000000001,0.0002,-0.0362,0.005,-0.035,-0.098
1701526194.606,19.609,19.609,-19.609,-0.0032,0.0001,0.0238,0.023,-0.026000000000000002,-0.094
1701526194.646,19.609,19.609,-19.609,0.0,0.0019,-0.0413,0.028,-0.026000000000000002,-0.08600000000000001
1701526194.6859999,19.609,19.609,-19.609,-0.0011,0.0027,0.0316,0.042,-0.023,-0.096
1701526194.726,19.609,19.609,-19.609,-0.0012000000000000001,0.0021000000000000003,0.0004,0.028,-0.044,-0.109
1701526194.766,19.609,19.609,-19.609,-0.0033,0.0008,-0.0422,0.005,-0.077,-0.1
1701526194.806,19.609,19.609,-19.609,-0.0012000000000000001,0.0025,0.037700000000000004,0.0,-0.07100000000000001,-0.098
1701526194.846,19.609,19.609,-19.609,-0.0002,0.0007,-0.0427,0.011,-0.061,-0.088
1701526194.886,19.609,19.609,-19.609,-0.0028,0.0005,0.0267,0.013000000000000001,-0.041,-0.091
1701526194.9259999,19.609,19.609,-19.609,-0.002,0.0008,-0.034300000000000004,0.016,-0.032,-0.098
1701526194.966,19.609,19.609,-19.609,-0.0019,-0.0014,0.038200000000000005,0.013000000000000001,-0.031,-0.1
1701526195.006,19.609,19.609,-19.609,-0.0015,-0.0009000000000000001,-0.0345,0.009000000000000001,-0.013000000000000001,-0.11800000000000001
1701526195.046,19.609,19.609,-19.609,-0.0018000000000000002,0.0005,0.0073,-0.008,-0.04,-0.114
1701526195.086,19.609,19.609,-19.609,0.0007,0.001,-0.001,-0.011,-0.032,-0.127
1701526195.126,19.609,19.609,-19.609,0.0023,0.0025,0.004200000000000001,-0.048,-0.032,-0.129
1701526195.166,19.609,19.609,-19.609,0.0028,0.0002,-0.01,-0.01,-0.034,-0.117
1701526195.206,19.609,19.609,-19.609,0.0007,-0.0001,0.0063,-0.006,-0.042,-0.121
1701526195.246,19.609,19.609,-19.609,-0.0006000000000000001,-0.0008,-0.0359,0.002,-0.049,-0.11800000000000001
1701526195.286,19.609,19.609,-19.609,0.0014,0.0009000000000000001,0.0263,0.007,-0.041,-0.11
1701526195.326,19.609,19.609,-19.609,-0.002,-0.002,-0.0468,0.007,-0.048,-0.10300000000000001
1701526195.366,19.609,19.609,-19.609,-0.0009000000000000001,0.0021000000000000003,0.0371,0.004,-0.029,-0.10300000000000001
1701526195.406,19.609,19.609,-19.609,-0.0007,0.0005,-0.0414,-0.002,-0.053,-0.1
1701526195.446,19.609,19.609,-19.609,-0.0004,-0.0018000000000000002,0.027700000000000002,0.001,-0.049,-0.106
1701526195.486,19.609,19.609,-19.609,0.0,0.0028,0.0047,0.009000000000000001,-0.039,-0.113
1701526195.526,19.609,19.609,-19.609,0.0031000000000000003,-0.001,-0.061000000000000006,0.003,-0.045,-0.113
1701526195.566,19.609,19.609,-19.609,-0.0014,0.001,0.0379,0.007,-0.051000000000000004,-0.098
1701526195.606,19.609,19.609,-19.609,-0.0006000000000000001,0.0,-0.0346,0.008,-0.031,-0.10200000000000001
1701526195.646,19.609,19.609,-19.609,-0.00030000000000000003,0.001,0.045200000000000004,0.042,-0.018000000000000002,-0.097
1701526195.686,19.609,19.609,-19.609,-0.0002,0.0017000000000000001,-0.027100000000000003,0.069,-0.002,-0.1
1701526195.726,19.609,19.609,-19.609,-0.0002,0.0016,0.027700000000000002,0.041,-0.022,-0.113
1701526195.766,19.609,19.609,-19.609,-0.0015,-0.0018000000000000002,-0.041800000000000004,0.024,-0.029,-0.125
1701526195.806,19.609,19.609,-19.609,0.0005,0.0015,0.030000000000000002,0.004,-0.042,-0.123
1701526195.846,19.609,19.609,-19.609,0.0013000000000000002,0.0015,-0.037200000000000004,-0.009000000000000001,-0.052000000000000005,-0.115
1701526195.886,19.609,19.609,-19.609,0.0031000000000000003,-0.0015,0.033600000000000005,0.0,-0.042,-0.133
1701526195.926,19.609,19.609,-19.609,-0.0014,-0.00030000000000000003,-0.0439,-0.008,-0.041,-0.125
1701526195.966,19.609,19.609,-19.609,0.0006000000000000001,0.0023,0.0236,-0.016,-0.033,-0.116
1701526196.006,19.609,19.609,-19.609,0.0024000000000000002,0.0011,-0.037700000000000004,-0.015,-0.049,-0.129
1701526196.046,19.609,19.609,-19.609,-0.0031000000000000003,-0.0017000000000000001,0.031,-0.014,-0.04,-0.11800000000000001
1701526196.086,19.609,19.609,-19.609,-0.0002,-0.0008,-0.0403,-0.012,-0.029,-0.112
1701526196.126,19.609,19.609,-19.609,-0.0015,0.00030000000000000003,0.0426,0.001,-0.033,-0.10300000000000001
1701526196.166,19.609,19.609,-19.609,-0.0018000000000000002,0.0017000000000000001,-0.011300000000000001,-0.006,-0.042,-0.109
1701526196.2059999,19.609,19.609,-19.609,0.00030000000000000003,0.0022,-0.0396,0.001,-0.04,-0.091
1701526196.246,19.609,19.609,-19.609,0.0005,0.0012000000000000001,-0.0646,0.002,-0.042,-0.1
1701526196.286,19.609,19.609,-19.609,0.0027,0.0006000000000000001,0.050300000000000004,0.0,-0.043000000000000003,-0.117
1701526196.326,19.609,19.609,-19.609,-0.0009000000000000001,-0.0007,-0.0081,-0.018000000000000002,-0.047,-0.117
1701526196.366,19.609,19.609,-19.609,-0.0001,-0.0032,-0.032100000000000004,0.006,-0.043000000000000003,-0.108
1701526196.406,19.609,19.609,-19.609,0.0001,-0.0017000000000000001,0.0313,0.015,-0.044,-0.108
1701526196.4459999,19.609,19.609,-19.609,-0.0017000000000000001,0.0006000000000000001,-0.0413,0.009000000000000001,-0.043000000000000003,-0.106
1701526196.486,19.609,19.609,-19.609,-0.0004,0.0009000000000000001,0.0261,0.004,-0.053,-0.116
1701526196.526,19.609,19.609,-19.609,0.0007,-0.0015,0.0043,-0.011,-0.057,-0.121
1701526196.566,19.609,19.609,-19.609,-0.0014,0.002,-0.0184,-0.011,-0.054,-0.12
1701526196.606,19.609,19.609,-19.609,-0.0012000000000000001,-0.0004,0.0122,-0.01,-0.045,-0.124
1701526196.646,19.609,19.609,-19.609,0.0019,0.0013000000000000002,-0.0063,-0.01,-0.051000000000000004,-0.123
1701526196.6859999,19.609,19.609,-19.609,-0.0014,-0.0012000000000000001,-0.015700000000000002,-0.02,-0.047,-0.131
1701526196.726,19.609,19.609,-19.609,-0.001,0.0007,-0.028800000000000003,-0.018000000000000002,-0.034,-0.11800000000000001
1701526196.766,19.609,19.609,-19.609,-0.0011,0.0,0.0393,-0.003,-0.042,-0.109
1701526196.806,19.609,19.609,-19.609,-0.0037,-0.0019,-0.0055000000000000005,-0.001,-0.052000000000000005,-0.132
1701526196.846,19.609,19.609,-19.609,0.0013000000000000002,0.0005,0.0094,-0.013000000000000001,-0.052000000000000005,-0.125
1701526196.886,19.609,19.609,-19.609,-0.0005,0.002,-0.039,-0.011,-0.053,-0.123
1701526196.9259999,19.609,19.609,-19.609,-0.00030000000000000003,0.0001,0.027600000000000003,-0.002,-0.051000000000000004,-0.121
1701526196.966,19.609,19.609,-19.609,0.0007,0.0017000000000000001,0.0053,0.01,-0.049,-0.125
1701526197.006,19.609,19.609,-19.609,-0.0009000000000000001,0.0004,-0.0349,-0.006,-0.026000000000000002,-0.112
1701526197.046,19.609,19.609,-19.609,-0.0012000000000000001,-0.0004,0.027100000000000003,-0.012,-0.043000000000000003,-0.117
1701526197.086,19.609,19.609,-19.609,0.002,0.0006000000000000001,-0.0448,-0.025,-0.046,-0.128
1701526197.126,19.609,19.609,-19.609,-0.0009000000000000001,0.0008,0.0267,-0.023,-0.035,-0.115
1701526197.166,19.609,19.609,-19.609,0.0006000000000000001,-0.0001,0.0064,-0.015,-0.042,-0.116
1701526197.206,19.609,19.609,-19.609,0.00030000000000000003,0.002,-0.0524,-0.012,-0.047,-0.109
1701526197.246,19.609,19.609,-19.609,-0.0009000000000000001,-0.00030000000000000003,0.0369,-0.013000000000000001,-0.054,-0.10400000000000001
1701526197.286,19.609,19.609,-19.609,-0.0019,-0.0018000000000000002,-0.0297,-0.011,-0.049,-0.109
1701526197.326,19.609,19.609,-19.609,-0.0009000000000000001,-0.0018000000000000002,0.028200000000000003,-0.021,-0.047,-0.113
1701526197.366,19.609,19.609,-19.609,0.0006000000000000001,0.0014,-0.0114,-0.025,-0.04,-0.12
1701526197.406,19.609,19.609,-19.609,-0.0015,0.0001,0.013900000000000001,-0.026000000000000002,-0.035,-0.132
1701526197.446,19.609,19.609,-19.609,0.0002,0.002,-0.013600000000000001,-0.025,-0.031,-0.151
1701526197.486,19.609,19.609,-19.609,0.0006000000000000001,0.0005,0.0102,-0.051000000000000004,-0.039,-0.154
1701526197.526,19.609,19.609,-19.609,-0.0007,-0.0002,-0.007,-0.058,-0.046,-0.14100000000000001
1701526197.566,19.609,19.609,-19.609,-0.0004,0.0017000000000000001,-0.039,-0.026000000000000002,-0.043000000000000003,-0.14300000000000002
1701526197.606,19.609,19.609,-19.609,0.0018000000000000002,-0.0009000000000000001,0.0218,-0.027,-0.044,-0.147
1701526197.646,19.609,19.609,-19.609,-0.0001,-0.0008,-0.006200000000000001,-0.017,-0.051000000000000004,-0.137
1701526197.686,19.609,19.609,-19.609,0.0005,-0.0018000000000000002,-0.0332,-0.01,-0.042,-0.134
1701526197.726,19.609,19.609,-19.609,-0.0017000000000000001,0.0012000000000000001,0.026000000000000002,-0.013000000000000001,-0.038,-0.138
1701526197.766,19.609,19.609,-19.609,0.0001,0.0023,-0.0159,-0.025,-0.039,-0.14200000000000002
1701526197.806,19.609,19.609,-19.609,-0.0001,0.0007,0.024800000000000003,-0.022,-0.039,-0.126
1701526197.846,19.609,19.609,-19.609,0.0022,0.0012000000000000001,-0.0357,-0.017,-0.04,-0.133
1701526197.886,19.609,19.609,-19.609,0.0006000000000000001,0.0006000000000000001,0.028,-0.019,-0.037,-0.125
1701526197.926,19.609,19.609,-19.609,-0.0018000000000000002,0.0007,-0.0488,-0.014,-0.038,-0.116
1701526197.966,19.609,19.609,-19.609,0.0007,0.0011,0.0397,-0.018000000000000002,-0.034,-0.113
1701526198.006,19.609,19.609,-19.609,0.0018000000000000002,-0.0005,0.011300000000000001,-0.021,-0.04,-0.10200000000000001
1701526198.046,19.609,19.609,-19.609,0.002,-0.0016,0.0019,-0.024,-0.035,-0.1
1701526198.086,19.609,19.609,-19.609,0.001,-0.002,0.0097,-0.031,-0.018000000000000002,-0.08600000000000001
1701526198.126,19.609,19.609,-19.609,-0.0016,-0.0014,-0.0318,-0.057,-0.006,-0.082
1701526198.166,19.609,19.609,-19.609,0.0007,-0.0004,0.0233,-0.097,-0.005,-0.094
1701526198.2059999,19.609,19.609,-19.609,-0.0015,0.0007,-0.0534,-0.129,-0.032,-0.10400000000000001
1701526198.246,19.609,19.609,-19.609,0.0024000000000000002,-0.0001,0.0395,-0.182,-0.032,-0.092
1701526198.286,19.609,19.609,-19.609,0.0,-0.0008,0.0089,-0.222,-0.024,-0.067
1701526198.326,19.609,19.609,-19.609,-0.0025,0.0009000000000000001,-0.060700000000000004,-0.215,-0.007,-0.037
1701526198.366,19.609,19.609,-19.609,-0.0014,0.0019,0.052000000000000005,-0.201,0.021,-0.036000000000000004
1701526198.406,19.609,19.609,-19.609,-0.0014,-0.00030000000000000003,-0.0199,-0.127,0.019,-0.054
1701526198.4459999,19.609,19.609,-19.609,0.0005,0.00030000000000000003,-0.0341,-0.065,0.032,-0.1
1701526198.486,19.609,19.609,-19.609,-0.0009000000000000001,-0.0007,0.030000000000000002,-0.042,0.024,-0.127
1701526198.526,19.609,19.609,-19.609,-0.0011,0.0026000000000000003,0.013000000000000001,-0.055,0.017,-0.135
1701526198.566,19.609,19.609,-19.609,-0.0013000000000000002,0.0024000000000000002,-0.047900000000000005,-0.101,0.009000000000000001,-0.121
1701526198.606,19.609,19.609,-19.609,-0.00030000000000000003,-0.0002,0.0368,-0.07200000000000001,0.019,-0.113
1701526198.646,19.609,19.609,-19.609,0.0017000000000000001,0.0016,-0.0449,-0.063,-0.011,-0.121
1701526198.6859999,19.609,19.609,-19.609,-0.0021000000000000003,0.0018000000000000002,0.0386,-0.051000000000000004,0.01,-0.123
1701526198.726,19.609,19.609,-19.609,-0.002,0.0008,-0.054900000000000004,-0.041,0.015,-0.125
1701526198.766,19.609,19.609,-19.609,0.0004,-0.0002,0.041100000000000005,-0.007,-0.004,-0.123
1701526198.806,19.609,19.609,-19.609,-0.0032,-0.0009000000000000001,-0.011600000000000001,-0.046,-0.008,-0.125
1701526198.846,19.609,19.609,-19.609,-0.0008,0.0001,-0.0148,-0.059000000000000004,-0.012,-0.122
1701526198.886,19.609,19.609,-19.609,-0.0009000000000000001,-0.00030000000000000003,0.0054,-0.064,-0.013000000000000001,-0.125
1701526198.9259999,19.609,19.609,-19.609,0.0005,0.0009000000000000001,-0.0427,-0.076,-0.016,-0.126
1701526198.966,19.609,19.609,-19.609,0.0008,0.0006000000000000001,0.052700000000000004,-0.059000000000000004,-0.011,-0.13
1701526199.006,19.609,19.609,-19.609,-0.0006000000000000001,-0.0002,-0.0291,-0.032,-0.016,-0.124
1701526199.046,19.609,19.609,-19.609,-0.0017000000000000001,0.0019,0.0245,-0.052000000000000005,-0.024,-0.114
1701526199.086,19.609,19.609,-19.609,-0.0014,0.0018000000000000002,-0.0375,-0.079,-0.025,-0.117
1701526199.126,19.609,19.609,-19.609,-0.0018000000000000002,0.0007,0.0223,-0.08,-0.031,-0.109
1701526199.166,19.609,19.609,-19.609,-0.0009000000000000001,-0.0005,-0.009300000000000001,-0.045,-0.021,-0.108
1701526199.206,19.609,19.609,-19.609,0.0001,0.0,-0.0029000000000000002,-0.045,-0.022,-0.113
1701526199.246,19.609,19.609,-19.609,0.0007,0.0012000000000000001,-0.0664,-0.034,-0.026000000000000002,-0.11900000000000001
1701526199.286,19.609,19.609,-19.609,-0.0004,-0.0006000000000000001,0.0648,-0.04,-0.025,-0.109
1701526199.326,19.609,19.609,-19.609,-0.002,0.0014,-0.037200000000000004,-0.048,-0.026000000000000002,-0.105
1701526199.366,19.609,19.609,-19.609,-0.0013000000000000002,0.0009000000000000001,0.0213,-0.038,-0.035,-0.10200000000000001
1701526199.406,19.609,19.609,-19.609,-0.0021000000000000003,-0.0001,-0.020900000000000002,-0.029,-0.034,-0.10300000000000001
1701526199.446,19.609,19.609,-19.609,0.0004,-0.0021000000000000003,0.023,-0.016,-0.026000000000000002,-0.116
1701526199.486,19.609,19.609,-19.609,0.0006000000000000001,-0.0004,-0.0014,-0.005,-0.034,-0.123
1701526199.526,19.609,19.609,-19.609,-0.0017000000000000001,0.0014,-0.0451,-0.001,-0.045,-0.12
1701526199.566,19.609,19.609,-19.609,-0.0004,0.0,0.0302,-0.003,-0.038,-0.11800000000000001
1701526199.606,19.609,19.609,-19.609,-0.0006000000000000001,-0.0006000000000000001,-0.0228,-0.01,-0.027,-0.11800000000000001
1701526199.646,19.609,19.609,-19.609,0.001,0.0,0.0143,-0.002,-0.039,-0.116
1701526199.686,19.609,19.609,-19.609,0.0006000000000000001,-0.0004,-0.0325,-0.006,-0.037,-0.11900000000000001
1701526199.726,19.609,19.609,-19.609,-0.002,0.0009000000000000001,0.019100000000000002,0.0,-0.036000000000000004,-0.11800000000000001
1701526199.766,19.609,19.609,-19.609,-0.0009000000000000001,-0.0007,0.0054,0.014,-0.045,-0.11800000000000001
1701526199.806,19.609,19.609,-19.609,-0.0011,0.0007,-0.0618,0.045,-0.056,-0.115
1701526199.846,19.609,19.609,-19.609,-0.0006000000000000001,0.0,0.0162,0.06,-0.05,-0.114
1701526199.886,19.609,19.609,-19.609,-0.001,0.0007,-0.0073,0.054,-0.046,-0.093
1701526199.926,19.609,19.609,-19.609,-0.0008,-0.00030000000000000003,-0.0164,0.07200000000000001,-0.042,-0.077
1701526199.966,19.609,19.609,-19.609,-0.0012000000000000001,0.0,0.0205,0.116,-0.034,-0.074
1701526200.006,19.609,19.609,-19.609,-0.001,0.0016,0.009000000000000001,0.122,-0.041,-0.08
1701526200.046,19.609,19.609,-19.609,-0.0014,-0.00030000000000000003,-0.053200000000000004,0.105,-0.029,-0.079
1701526200.086,19.609,19.609,-19.609,-0.0011,0.0006000000000000001,0.036000000000000004,0.064,-0.033,-0.073
1701526200.126,19.609,19.609,-19.609,0.0,0.0026000000000000003,0.007500000000000001,0.045,-0.026000000000000002,-0.07200000000000001
1701526200.166,19.609,19.609,-19.609,0.0,0.0009000000000000001,-0.0543,0.043000000000000003,-0.032,-0.083
1701526200.2059999,19.609,19.609,-19.609,-0.0016,0.0006000000000000001,0.031100000000000003,0.056,-0.034,-0.08700000000000001
1701526200.246,19.609,19.609,-19.609,0.0014,-0.001,-0.0027,0.067,-0.013000000000000001,-0.078
1701526200.286,19.609,19.609,-19.609,-0.0005,0.00030000000000000003,-0.031900000000000005,0.083,-0.005,-0.081
1701526200.326,19.609,19.609,-19.609,0.00030000000000000003,0.0004,0.0261,0.085,-0.009000000000000001,-0.073
1701526200.366,19.609,19.609,-19.609,0.0022,0.0009000000000000001,0.0022,0.073,-0.004,-0.084
1701526200.406,19.609,19.609,-19.609,0.0005,0.0006000000000000001,-0.0357,0.073,0.022,-0.095
1701526200.4459999,19.609,19.609,-19.609,-0.00030000000000000003,0.0006000000000000001,0.028900000000000002,0.075,0.018000000000000002,-0.092
1701526200.486,19.609,19.609,-19.609,-0.00030000000000000003,0.0004,-0.0376,0.067,0.028,-0.114
1701526200.526,19.609,19.609,-19.609,0.0022,0.0008,0.0325,0.082,0.027,-0.125
1701526200.566,19.609,19.609,-19.609,0.001,0.0,-0.0434,0.075,0.026000000000000002,-0.128
1701526200.606,19.609,19.609,-19.609,-0.0002,-0.0009000000000000001,0.0385,0.076,0.018000000000000002,-0.123
1701526200.646,19.609,19.609,-19.609,0.0013000000000000002,-0.0012000000000000001,-0.0285,0.077,0.013000000000000001,-0.12
1701526200.6859999,19.609,19.609,-19.609,-0.002,0.0012000000000000001,0.0135,0.06,0.018000000000000002,-0.112
1701526200.726,19.609,19.609,-19.609,-0.0005,0.0005,-0.0381,0.05,0.025,-0.095
1701526200.766,19.609,19.609,-19.609,-0.0019,-0.0006000000000000001,0.043500000000000004,0.047,0.007,-0.091
1701526200.806,19.609,19.609,-19.609,0.0046,-0.0012000000000000001,-0.031,0.026000000000000002,-0.002,-0.083
1701526200.846,19.609,19.609,-19.609,0.0009000000000000001,-0.0037,0.0181,0.014,-0.01,-0.077
1701526200.886,19.609,19.609,-19.609,0.0005,-0.0001,-0.0184,-0.002,-0.013000000000000001,-0.081
1701526200.9259999,19.609,19.609,-19.609,-0.0023,-0.0021000000000000003,0.0095,0.012,-0.029,-0.1
1701526200.966,19.609,19.609,-19.609,-0.0009000000000000001,0.0011,-0.0102,0.022,-0.026000000000000002,-0.085
1701526201.006,19.609,19.609,-19.609,-0.0001,-0.0002,-0.0022,0.032,-0.032,-0.1
1701526201.046,19.609,19.609,-19.609,0.0011,-0.0011,-0.0302,0.021,-0.038,-0.106
1701526201.086,19.609,19.609,-19.609,0.0011,-0.0015,0.0352,0.021,-0.04,-0.111
1701526201.126,19.609,19.609,-19.609,-0.0011,0.0006000000000000001,-0.0131,0.011,-0.043000000000000003,-0.111
1701526201.166,19.609,19.609,-19.609,-0.001,0.0009000000000000001,-0.0253,-0.005,-0.041,-0.111
1701526201.206,19.609,19.609,-19.609,0.0001,0.0011,0.028300000000000002,-0.009000000000000001,-0.04,-0.116
1701526201.246,19.609,19.609,-19.609,-0.0024000000000000002,-0.0014,-0.0446,0.0,-0.04,-0.122
1701526201.286,19.609,19.609,-19.609,-0.0001,0.0008,0.040400000000000005,-0.017,-0.046,-0.13
1701526201.326,19.609,19.609,-19.609,-0.0008,0.0015,-0.0351,-0.02,-0.048,-0.127
1701526201.366,19.609,19.609,-19.609,0.0001,-0.0005,0.030600000000000002,-0.011,-0.048,-0.124
1701526201.406,19.609,19.609,-19.609,-0.00030000000000000003,-0.00030000000000000003,-0.0275,-0.009000000000000001,-0.047,-0.124
1701526201.446,19.609,19.609,-19.609,-0.0032,-0.0032,0.0182,-0.009000000000000001,-0.052000000000000005,-0.11900000000000001
1701526201.486,19.609,19.609,-19.609,-0.001,0.0007,0.0034000000000000002,-0.015,-0.048,-0.125
1701526201.526,19.609,19.609,-19.609,0.0001,0.0005,-0.0466,-0.01,-0.051000000000000004,-0.113
1701526201.566,19.609,19.609,-19.609,-0.0013000000000000002,0.0,0.0351,-0.007,-0.053,-0.113
1701526201.606,19.609,19.609,-19.609,0.0005,-0.0002,-0.032100000000000004,-0.003,-0.052000000000000005,-0.12
1701526201.646,19.609,19.609,-19.609,-0.0014,-0.0016,0.0383,-0.018000000000000002,-0.056,-0.117
1701526201.686,19.609,19.609,-19.609,0.00030000000000000003,0.0004,0.053700000000000005,-0.014,-0.052000000000000005,-0.115
1701526201.726,19.609,19.609,-19.609,-0.002,0.0006000000000000001,-0.019700000000000002,-0.006,-0.049,-0.116
1701526201.766,19.609,19.609,-19.609,0.0006000000000000001,-0.0007,0.016800000000000002,-0.004,-0.05,-0.116
1701526201.806,19.609,19.609,-19.609,0.00030000000000000003,0.0018000000000000002,0.001,-0.012,-0.052000000000000005,-0.108
1701526201.846,19.609,19.609,-19.609,0.00030000000000000003,0.0001,-0.051000000000000004,0.0,-0.05,-0.11900000000000001
1701526201.886,19.609,19.609,-19.609,-0.0012000000000000001,-0.0004,0.039400000000000004,-0.002,-0.049,-0.122
1701526201.926,19.609,19.609,-19.609,-0.0028,0.00030000000000000003,-0.0369,-0.007,-0.057,-0.116
1701526201.966,19.609,19.609,-19.609,0.0021000000000000003,0.0015,0.022500000000000003,-0.006,-0.058,-0.116
1701526202.006,19.609,19.609,-19.609,-0.0006000000000000001,-0.0001,-0.0443,-0.003,-0.055,-0.11800000000000001
1701526202.046,19.609,19.609,-19.609,-0.001,0.0002,0.0459,-0.002,-0.046,-0.108
1701526202.086,19.609,19.609,-19.609,-0.0022,0.0,-0.0514,-0.008,-0.048,-0.11800000000000001
1701526202.126,19.609,19.609,-19.609,-0.0009000000000000001,-0.0004,0.043500000000000004,-0.011,-0.041,-0.122
1701526202.166,19.609,19.609,-19.609,-0.0002,0.0015,-0.0485,-0.001,-0.048,-0.113
1701526202.2059999,19.609,19.609,-19.609,0.0,0.0015,0.0368,-0.001,-0.076,-0.117
1701526202.246,19.609,19.609,-19.609,-0.0012000000000000001,0.001,-0.0244,0.0,-0.045,-0.115
1701526202.286,19.609,19.609,-19.609,0.0004,0.0004,0.0297,-0.023,-0.047,-0.11
1701526202.326,19.609,19.609,-19.609,0.001,0.0001,-0.016900000000000002,-0.016,-0.04,-0.107
1701526202.366,19.609,19.609,-19.609,-0.0012000000000000001,0.0002,0.0076,-0.019,-0.039,-0.105
1701526202.406,19.609,19.609,-19.609,-0.00030000000000000003,-0.0016,-0.0117,0.005,-0.043000000000000003,-0.11900000000000001
1701526202.4459999,19.609,19.609,-19.609,0.0008,0.0023,-0.015000000000000001,-0.018000000000000002,-0.046,-0.113
1701526202.486,19.609,19.609,-19.609,0.0004,0.0001,0.0158,-0.018000000000000002,-0.049,-0.112
1701526202.526,19.609,19.609,-19.609,-0.0022,-0.002,-0.0335,-0.003,-0.048,-0.109
1701526202.566,19.609,19.609,-19.609,-0.0015,0.00030000000000000003,0.0236,-0.009000000000000001,-0.054,-0.111
1701526202.606,19.609,19.609,-19.609,0.0,0.0011,-0.0002,0.0,-0.052000000000000005,-0.10200000000000001
1701526202.646,19.609,19.609,-19.609,-0.0041,-0.0001,-0.0499,0.005,-0.056,-0.106
1701526202.6859999,19.609,19.609,-19.609,-0.002,0.0007,0.0398,0.002,-0.054,-0.11
1701526202.726,19.609,19.609,-19.609,-0.0005,0.0012000000000000001,-0.0482,-0.007,-0.057,-0.112
1701526202.766,19.609,19.609,-19.609,-0.0005,0.0,0.0359,0.006,-0.054,-0.111
1701526202.806,19.609,19.609,-19.609,-0.0007,0.0,-0.0521,0.016,-0.041,-0.11800000000000001
1701526202.846,19.609,19.609,-19.609,-0.0004,0.002,0.0417,-0.008,-0.036000000000000004,-0.11
1701526202.886,19.609,19.609,-19.609,0.0022,0.0012000000000000001,-0.0004,0.001,-0.044,-0.11800000000000001
1701526202.9259999,19.609,19.609,-19.609,0.00030000000000000003,0.0028,-0.0448,-0.001,-0.048,-0.121
1701526202.966,19.609,19.609,-19.609,-0.0026000000000000003,0.0018000000000000002,0.0403,-0.003,-0.054,-0.117
1701526203.006,19.609,19.609,-19.609,-0.0014,-0.00030000000000000003,0.005200000000000001,0.006,-0.058,-0.121
1701526203.046,19.609,19.609,-19.609,0.001,-0.0017000000000000001,-0.0632,-0.001,-0.06,-0.123
1701526203.086,19.609,19.609,-19.609,0.0015,0.0004,0.0466,-0.01,-0.052000000000000005,-0.117
1701526203.126,19.609,19.609,-19.609,-0.0036000000000000003,-0.0001,-0.0158,-0.003,-0.057,-0.114
1701526203.166,19.609,19.609,-19.609,-0.0002,0.00030000000000000003,0.0142,0.003,-0.052000000000000005,-0.112
1701526203.206,19.609,19.609,-19.609,-0.0001,-0.0015,-0.0032,0.002,-0.054,-0.11800000000000001
1701526203.246,19.609,19.609,-19.609,-0.0009000000000000001,-0.0011,-0.055600000000000004,-0.012,-0.061,-0.11
1701526203.286,19.609,19.609,-19.609,0.0027,0.0026000000000000003,0.0463,-0.007,-0.045,-0.112
1701526203.326,19.609,19.609,-19.609,-0.001,0.0004,-0.024300000000000002,-0.003,-0.044,-0.112
1701526203.366,19.609,19.609,-19.609,0.0001,0.0015,0.0114,0.0,-0.051000000000000004,-0.116
1701526203.406,19.609,19.609,-19.609,0.0001,0.001,-0.0455,-0.001,-0.046,-0.105
1701526203.446,19.609,19.609,-19.609,-0.0006000000000000001,-0.0013000000000000002,0.034300000000000004,-0.005,-0.041,-0.111
1701526203.486,19.609,19.609,-19.609,0.0001,0.0,-0.0036000000000000003,-0.005,-0.054,-0.114
1701526203.526,19.609,19.609,-19.609,-0.00030000000000000003,-0.0004,-0.027800000000000002,-0.005,-0.058,-0.115
1701526203.566,19.609,19.609,-19.609,-0.001,-0.0002,0.0325,-0.006,-0.051000000000000004,-0.111
1701526203.606,19.609,19.609,-19.609,-0.0014,-0.0017000000000000001,-0.0408,-0.011,-0.043000000000000003,-0.115
1701526203.646,19.609,19.609,-19.609,0.0,0.0024000000000000002,0.0252,-0.005,-0.04,-0.113
1701526203.686,19.609,19.609,-19.609,-0.0017000000000000001,-0.001,-0.0025,-0.004,-0.036000000000000004,-0.115
1701526203.726,19.609,19.609,-19.609,0.0009000000000000001,0.00030000000000000003,-0.0429,-0.005,-0.045,-0.112
1701526203.766,19.609,19.609,-19.609,0.0018000000000000002,0.001,0.0187,0.0,-0.052000000000000005,-0.11800000000000001
1701526203.806,19.609,19.609,-19.609,-0.0014,0.0001,-0.0154,-0.008,-0.055,-0.109
1701526203.846,19.609,19.609,-19.609,0.0007,0.0,0.0126,-0.005,-0.061,-0.115
1701526203.886,19.609,19.609,-19.609,-0.0018000000000000002,0.0018000000000000002,-0.0335,-0.007,-0.046,-0.116
1701526203.926,19.609,19.609,-19.609,-0.0012000000000000001,0.00030000000000000003,0.0236,-0.008,-0.041,-0.101
1701526203.966,19.609,19.609,-19.609,-0.0009000000000000001,0.0006000000000000001,-0.0347,-0.007,-0.033,-0.112
1701526204.006,19.609,19.609,-19.609,0.0008,-0.0007,0.0304,-0.009000000000000001,-0.043000000000000003,-0.114
1701526204.046,19.609,19.609,-19.609,0.0013000000000000002,-0.0009000000000000001,0.0,-0.012,-0.041,-0.11800000000000001
1701526204.086,19.609,19.609,-19.609,-0.0007,0.0001,-0.043500000000000004,-0.012,-0.026000000000000002,-0.113
1701526204.126,19.609,19.609,-19.609,0.0009000000000000001,0.0004,0.0337,-0.003,-0.04,-0.12
1701526204.166,19.609,19.609,-19.609,-0.0018000000000000002,-0.0004,-0.0038,-0.014,-0.037,-0.112
1701526204.2059999,19.609,19.609,-19.609,0.001,-0.0006000000000000001,-0.044700000000000004,-0.009000000000000001,-0.048,-0.116
1701526204.246,19.609,19.609,-19.609,0.0002,-0.0005,0.0397,0.002,-0.037,-0.121
1701526204.286,19.609,19.609,-19.609,-0.0026000000000000003,-0.0025,-0.0006000000000000001,-0.045,-0.042,-0.111
1701526204.326,19.609,19.609,-19.609,-0.0004,0.0001,-0.061200000000000004,-0.011,-0.049,-0.115
1701526204.366,19.609,19.609,-19.609,-0.001,-0.0001,0.0413,-0.039,-0.041,-0.112
1701526204.406,19.609,19.609,-19.609,-0.0018000000000000002,-0.002,-0.051800000000000006,0.002,-0.054,-0.11
1701526204.4459999,19.609,19.609,-19.609,-0.0005,0.00030000000000000003,0.0473,-0.005,-0.009000000000000001,-0.117
1701526204.486,19.609,19.609,-19.609,0.0006000000000000001,-0.0005,0.0034000000000000002,-0.009000000000000001,-0.04,-0.116
1701526204.526,19.609,19.609,-19.609,-0.0014,-0.0002,-0.0297,0.0,-0.044,-0.114
1701526204.566,19.609,19.609,-19.609,-0.0014,-0.0017000000000000001,0.0102,-0.005,-0.051000000000000004,-0.117
1701526204.606,19.609,19.609,-19.609,0.0011,0.002,0.0103,-0.004,-0.045,-0.117
1701526204.646,19.609,19.609,-19.609,0.0007,-0.0013000000000000002,-0.0539,0.001,-0.046,-0.111
1701526204.6859999,19.609,19.609,-19.609,-0.0007,0.0001,0.0358,-0.007,-0.04,-0.12
1701526204.726,19.609,19.609,-19.609,-0.0014,0.0007,-0.0471,-0.006,-0.038,-0.111
1701526204.766,19.609,19.609,-19.609,-0.0007,-0.0024000000000000002,0.0426,0.003,-0.039,-0.115
1701526204.806,19.609,19.609,-19.609,-0.0015,0.0007,-0.0417,-0.002,-0.041,-0.129
1701526204.846,19.609,19.609,-19.609,0.0023,-0.0006000000000000001,0.0268,-0.012,-0.056,-0.11800000000000001
1701526204.886,19.609,19.609,-19.609,-0.0029000000000000002,0.0018000000000000002,-0.041800000000000004,-0.007,-0.052000000000000005,-0.117
1701526204.9259999,19.609,19.609,-19.609,-0.002,-0.0007,0.0253,0.005,-0.045,-0.12
1701526204.966,19.609,19.609,-19.609,-0.0026000000000000003,0.0014,-0.023,-0.002,-0.049,-0.116
1701526205.006,19.609,19.609,-19.609,0.0001,-0.001,0.0222,-0.005,-0.045,-0.10300000000000001
1701526205.046,19.609,19.609,-19.609,-0.0001,-0.0021000000000000003,-0.041,0.0,-0.042,-0.121
1701526205.086,19.609,19.609,-19.609,0.001,0.0005,0.0316,-0.006,-0.044,-0.111
1701526205.126,19.609,19.609,-19.609,0.0,-0.00030000000000000003,0.0055000000000000005,-0.008,-0.052000000000000005,-0.1
1701526205.166,19.609,19.609,-19.609,-0.0004,-0.0002,-0.049600000000000005,-0.002,-0.052000000000000005,-0.114
1701526205.206,19.609,19.609,-19.609,-0.0037,-0.0006000000000000001,0.0368,-0.01,-0.042,-0.11
1701526205.246,19.609,19.609,-19.609,-0.001,0.0015,-0.030500000000000003,-0.011,-0.035,-0.112
1701526205.286,19.609,19.609,-19.609,-0.0014,0.00030000000000000003,0.0123,-0.009000000000000001,-0.04,-0.11800000000000001
1701526205.326,19.609,19.609,-19.609,-0.0002,-0.0008,0.046200000000000005,-0.002,-0.046,-0.112
1701526205.366,19.609,19.609,-19.609,-0.0012000000000000001,0.0008,-0.0105,-0.001,-0.041,-0.11800000000000001
1701526205.406,19.609,19.609,-19.609,0.0001,0.0006000000000000001,0.0025,-0.002,-0.055,-0.113
1701526205.446,19.609,19.609,-19.609,0.0034000000000000002,0.0022,-0.038700000000000005,-0.003,-0.052000000000000005,-0.114
1701526205.486,19.609,19.609,-19.609,-0.0014,0.0006000000000000001,0.042100000000000005,-0.001,-0.049,-0.117
1701526205.526,19.609,19.609,-19.609,-0.0017000000000000001,0.00030000000000000003,-0.046400000000000004,-0.002,-0.047,-0.105
1701526205.566,19.609,19.609,-19.609,-0.0008,0.0002,0.029400000000000003,0.005,-0.037,-0.113
1701526205.606,19.609,19.609,-19.609,-0.0012000000000000001,-0.0012000000000000001,-0.0009000000000000001,0.0,-0.049,-0.11800000000000001
1701526205.646,19.609,19.609,-19.609,0.0015,-0.0028,-0.0437,-0.006,-0.059000000000000004,-0.116
1701526205.686,19.609,19.609,-19.609,-0.0005,-0.001,0.0358,0.001,-0.041,-0.115
1701526205.726,19.609,19.609,-19.609,0.0039000000000000003,0.0006000000000000001,-0.0323,-0.006,-0.051000000000000004,-0.12
