timestamp,acc_x,acc_y,acc_z,magn_x,magn_y,magn_z,gyro_x,gyro_y,gyro_z
1701527099.212,19.609,19.609,-19.609,0.0006000000000000001,-0.0001,0.016900000000000002,0.012,-0.034,-0.125
1701527099.2519999,19.609,19.609,-19.609,0.0009000000000000001,-0.0017000000000000001,0.0033,-0.005,-0.041,-0.1
1701527099.292,19.609,19.609,-19.609,0.0035,0.0011,0.0033,-0.004,-0.047,-0.099
1701527099.332,19.609,19.609,-19.609,-0.0006000000000000001,-0.0018000000000000002,0.0074,0.001,-0.054,-0.109
1701527099.372,19.609,19.609,-19.609,0.0023,0.001,0.0095,0.014,-0.043000000000000003,-0.107
1701527099.412,19.609,19.609,-19.609,0.003,-0.0014,0.0064,-0.003,-0.03,-0.112
1701527099.452,19.609,19.609,-19.609,0.004200000000000001,0.0001,0.0078000000000000005,-0.041,-0.005,-0.1
1701527099.4919999,19.609,19.609,-19.609,0.0018000000000000002,-0.0018000000000000002,0.0032,-0.05,-0.01,-0.099
1701527099.532,19.609,19.609,-19.609,0.0027,-0.0025,0.0098,-0.013000000000000001,-0.014,-0.10200000000000001
1701527099.572,19.609,19.609,-19.609,0.0021000000000000003,0.0001,-0.0023,0.004,-0.028,-0.105
1701527099.612,19.609,19.609,-19.609,0.002,-0.001,0.01,0.002,-0.037,-0.113
1701527099.652,19.609,19.609,-19.609,0.0034000000000000002,0.0014,0.010100000000000001,0.018000000000000002,-0.052000000000000005,-0.11
1701527099.692,19.609,19.609,-19.609,0.0033,-0.0026000000000000003,-0.0067,-0.008,-0.04,-0.106
1701527099.7319999,19.609,19.609,-19.609,0.0006000000000000001,-0.0009000000000000001,0.0053,-0.011,-0.047,-0.1
1701527099.772,19.609,19.609,-19.609,0.0023,-0.0024000000000000002,0.0056,-0.006,-0.046,-0.105
1701527099.812,19.609,19.609,-19.609,0.0013000000000000002,-0.0023,0.0078000000000000005,-0.006,-0.038,-0.11
1701527099.852,19.609,19.609,-19.609,0.0029000000000000002,0.0007,0.0122,0.002,-0.053,-0.109
1701527099.892,19.609,19.609,-19.609,0.0031000000000000003,0.0001,0.0145,-0.001,-0.044,-0.10200000000000001
1701527099.932,19.609,19.609,-19.609,0.0045000000000000005,0.0012000000000000001,-0.008700000000000001,0.015,-0.06,-0.108
1701527099.972,19.609,19.609,-19.609,0.0022,0.0004,0.013900000000000001,0.023,-0.074,-0.105
1701527100.012,19.609,19.609,-19.609,0.0083,0.0014,0.0098,0.041,-0.07200000000000001,-0.093
1701527100.052,19.609,19.609,-19.609,0.001,-0.0009000000000000001,0.0054,0.04,-0.099,-0.105
1701527100.092,19.609,19.609,-19.609,0.002,-0.0007,0.0198,0.051000000000000004,-0.114,-0.094
1701527100.132,19.609,19.609,-19.609,0.0019,0.0012000000000000001,0.0067,0.066,-0.13,-0.111
1701527100.172,19.609,19.609,-19.609,0.0015,0.0,0.0045000000000000005,0.038,-0.116,-0.125
1701527100.212,19.609,19.609,-19.609,0.003,-0.0005,0.0028,0.001,-0.088,-0.113
1701527100.252,19.609,19.609,-19.609,0.0037,-0.003,0.010400000000000001,-0.015,-0.07100000000000001,-0.113
1701527100.292,19.609,19.609,-19.609,0.0034000000000000002,0.00030000000000000003,0.004200000000000001,0.012,-0.067,-0.126
1701527100.332,19.609,19.609,-19.609,0.0046,-0.0001,-0.0001,0.0,-0.051000000000000004,-0.111
1701527100.372,19.609,19.609,-19.609,0.0044,-0.0018000000000000002,-0.0005,0.026000000000000002,-0.06,-0.10400000000000001
1701527100.412,19.609,19.609,-19.609,0.0032,-0.0001,0.0241,0.017,-0.062,-0.095
1701527100.452,19.609,19.609,-19.609,0.0007,-0.0019,0.0029000000000000002,0.025,-0.067,-0.113
1701527100.492,19.609,19.609,-19.609,0.0026000000000000003,-0.0004,0.0043,0.008,-0.113,-0.105
1701527100.532,19.609,19.609,-19.609,0.0023,-0.0028,0.0073,-0.005,-0.069,-0.107
1701527100.572,19.609,19.609,-19.609,0.004,-0.0013000000000000002,0.0088,0.007,-0.061,-0.12
1701527100.612,19.609,19.609,-19.609,0.0026000000000000003,-0.0009000000000000001,-0.0025,0.007,-0.057,-0.106
1701527100.652,19.609,19.609,-19.609,0.0025,-0.0009000000000000001,0.015300000000000001,-0.006,-0.032,-0.105
1701527100.692,19.609,19.609,-19.609,0.0028,-0.0017000000000000001,0.0086,-0.037,-0.03,-0.127
1701527100.732,19.609,19.609,-19.609,0.0013000000000000002,-0.00030000000000000003,0.0224,-0.114,-0.007,-0.131
1701527100.772,19.609,19.609,-19.609,0.004,0.0001,0.0109,-0.11,0.016,-0.117
1701527100.812,19.609,19.609,-19.609,0.0007,0.0,0.006200000000000001,-0.055,0.034,-0.108
1701527100.852,19.609,19.609,-19.609,0.0046,-0.0021000000000000003,0.0064,-0.016,0.045,-0.095
1701527100.892,19.609,19.609,-19.609,0.0034000000000000002,-0.002,-0.001,0.008,0.019,-0.091
1701527100.932,19.609,19.609,-19.609,0.0037,0.0,0.0037,0.016,-0.003,-0.096
1701527100.972,19.609,19.609,-19.609,0.0046,0.0001,0.0019,0.002,-0.014,-0.094
1701527101.0119998,19.609,19.609,-19.609,0.004200000000000001,-0.0025,0.0079,0.004,-0.013000000000000001,-0.092
1701527101.052,19.609,19.609,-19.609,0.0037,-0.0009000000000000001,0.0039000000000000003,-0.014,-0.023,-0.094
1701527101.092,19.609,19.609,-19.609,0.0048000000000000004,0.0,0.0155,-0.011,-0.026000000000000002,-0.10300000000000001
1701527101.132,19.609,19.609,-19.609,0.0014,0.0004,0.0118,-0.018000000000000002,-0.029,-0.106
1701527101.172,19.609,19.609,-19.609,0.0041,0.0006000000000000001,-0.0021000000000000003,-0.008,-0.038,-0.113
1701527101.212,19.609,19.609,-19.609,0.0035,-0.0018000000000000002,0.0111,0.005,-0.061,-0.116
1701527101.2519999,19.609,19.609,-19.609,0.0029000000000000002,0.0,-0.0252,0.011,-0.073,-0.126
1701527101.292,19.609,19.609,-19.609,0.0036000000000000003,-0.0002,0.018000000000000002,0.025,-0.082,-0.123
1701527101.332,19.609,19.609,-19.609,0.0019,0.0,0.0091,0.015,-0.079,-0.121
1701527101.372,19.609,19.609,-19.609,0.004200000000000001,-0.0002,0.004,-0.004,-0.073,-0.11
1701527101.412,19.609,19.609,-19.609,-0.00030000000000000003,0.0001,0.0068000000000000005,-0.013000000000000001,-0.063,-0.106
1701527101.452,19.609,19.609,-19.609,0.0004,-0.0007,0.006900000000000001,-0.01,-0.058,-0.107
1701527101.4919999,19.609,19.609,-19.609,0.0053,0.0002,-0.0021000000000000003,-0.006,-0.051000000000000004,-0.113
1701527101.532,19.609,19.609,-19.609,0.0009000000000000001,-0.0007,0.0068000000000000005,0.0,-0.052000000000000005,-0.114
1701527101.572,19.609,19.609,-19.609,-0.0013000000000000002,-0.0036000000000000003,-0.0059,-0.004,-0.047,-0.116
1701527101.612,19.609,19.609,-19.609,0.0033,0.0008,0.0028,-0.012,-0.044,-0.11
1701527101.652,19.609,19.609,-19.609,0.004,-0.0001,0.0076,-0.001,-0.05,-0.098
1701527101.692,19.609,19.609,-19.609,0.0023,-0.002,0.012,-0.001,-0.056,-0.108
1701527101.7319999,19.609,19.609,-19.609,0.0045000000000000005,-0.0028,0.0098,0.007,-0.05,-0.112
1701527101.772,19.609,19.609,-19.609,0.0026000000000000003,-0.0026000000000000003,0.007,0.001,-0.038,-0.10200000000000001
1701527101.812,19.609,19.609,-19.609,0.0015,-0.0009000000000000001,0.0131,0.0,-0.038,-0.101
1701527101.852,19.609,19.609,-19.609,0.0034000000000000002,-0.0026000000000000003,0.0057,-0.011,-0.038,-0.10300000000000001
1701527101.892,19.609,19.609,-19.609,0.0038,-0.003,0.0017000000000000001,0.006,-0.052000000000000005,-0.113
1701527101.932,19.609,19.609,-19.609,0.0007,-0.0021000000000000003,0.0079,-0.026000000000000002,-0.064,-0.105
1701527101.972,19.609,19.609,-19.609,0.0013000000000000002,0.00030000000000000003,0.0017000000000000001,0.025,-0.055,-0.114
1701527102.012,19.609,19.609,-19.609,0.004,-0.0004,0.0119,0.003,-0.051000000000000004,-0.11
1701527102.052,19.609,19.609,-19.609,0.0021000000000000003,-0.0024000000000000002,0.0016,0.008,-0.057,-0.117
1701527102.092,19.609,19.609,-19.609,0.0029000000000000002,-0.0016,0.0097,0.011,-0.059000000000000004,-0.115
1701527102.132,19.609,19.609,-19.609,0.0033,-0.0009000000000000001,0.0079,0.01,-0.067,-0.115
1701527102.172,19.609,19.609,-19.609,0.0031000000000000003,0.0,0.0089,0.006,-0.068,-0.116
1701527102.212,19.609,19.609,-19.609,0.004,-0.001,0.0004,0.019,-0.062,-0.11800000000000001
1701527102.252,19.609,19.609,-19.609,0.0017000000000000001,-0.0008,0.007200000000000001,0.0,-0.07100000000000001,-0.113
1701527102.292,19.609,19.609,-19.609,0.0046,-0.001,0.006,0.007,-0.07,-0.122
1701527102.332,19.609,19.609,-19.609,0.0028,-0.0012000000000000001,0.0037,0.002,-0.057,-0.12
1701527102.372,19.609,19.609,-19.609,0.0039000000000000003,-0.0019,0.0076,0.005,-0.057,-0.111
1701527102.412,19.609,19.609,-19.609,0.0048000000000000004,-0.0016,0.0079,0.002,-0.057,-0.117
1701527102.452,19.609,19.609,-19.609,0.004,-0.0012000000000000001,0.005,-0.009000000000000001,-0.058,-0.113
1701527102.492,19.609,19.609,-19.609,0.0053,-0.0004,0.0058000000000000005,-0.001,-0.067,-0.109
1701527102.532,19.609,19.609,-19.609,0.0022,-0.0006000000000000001,0.0009000000000000001,-0.01,-0.033,-0.10300000000000001
1701527102.572,19.609,19.609,-19.609,0.004200000000000001,-0.00030000000000000003,0.0001,-0.02,-0.033,-0.10300000000000001
1701527102.612,19.609,19.609,-19.609,0.0031000000000000003,-0.0011,0.016900000000000002,-0.007,-0.045,-0.107
1701527102.652,19.609,19.609,-19.609,0.0035,-0.0015,-0.0016,-0.007,-0.051000000000000004,-0.111
1701527102.692,19.609,19.609,-19.609,0.0009000000000000001,-0.0007,0.0126,-0.016,-0.047,-0.113
1701527102.732,19.609,19.609,-19.609,0.0011,0.0009000000000000001,0.0016,-0.01,-0.049,-0.11
1701527102.772,19.609,19.609,-19.609,0.0026000000000000003,-0.0017000000000000001,0.0089,-0.007,-0.051000000000000004,-0.109
1701527102.812,19.609,19.609,-19.609,0.0032,-0.0009000000000000001,0.006200000000000001,-0.004,-0.042,-0.108
1701527102.852,19.609,19.609,-19.609,0.0015,-0.0021000000000000003,0.0126,-0.017,-0.036000000000000004,-0.10400000000000001
1701527102.892,19.609,19.609,-19.609,0.0067,-0.0012000000000000001,0.0146,-0.01,-0.037,-0.111
1701527102.932,19.609,19.609,-19.609,0.0023,-0.001,0.0022,-0.008,-0.048,-0.115
1701527102.972,19.609,19.609,-19.609,0.0018000000000000002,0.0007,0.0039000000000000003,-0.004,-0.065,-0.124
1701527103.0119998,19.609,19.609,-19.609,0.0028,-0.00030000000000000003,0.007500000000000001,-0.004,-0.062,-0.124
1701527103.052,19.609,19.609,-19.609,0.0036000000000000003,-0.0007,0.015300000000000001,-0.009000000000000001,-0.061,-0.12
1701527103.092,19.609,19.609,-19.609,0.0037,0.0,0.0045000000000000005,-0.007,-0.06,-0.11800000000000001
1701527103.132,19.609,19.609,-19.609,0.002,-0.0023,-0.0018000000000000002,-0.009000000000000001,-0.053,-0.114
1701527103.172,19.609,19.609,-19.609,0.0022,0.0001,0.011000000000000001,-0.012,-0.045,-0.112
1701527103.212,19.609,19.609,-19.609,-0.0009000000000000001,0.0001,0.0083,-0.018000000000000002,-0.045,-0.11
1701527103.2519999,19.609,19.609,-19.609,0.0018000000000000002,-0.0016,0.012,-0.009000000000000001,-0.051000000000000004,-0.116
1701527103.292,19.609,19.609,-19.609,0.001,0.0016,0.007500000000000001,-0.006,-0.046,-0.111
1701527103.332,19.609,19.609,-19.609,0.0026000000000000003,-0.0012000000000000001,0.0047,-0.004,-0.034,-0.106
1701527103.372,19.609,19.609,-19.609,0.0032,-0.001,0.019700000000000002,-0.024,-0.016,-0.09
1701527103.412,19.609,19.609,-19.609,0.0029000000000000002,-0.0007,0.008400000000000001,-0.007,-0.034,-0.099
1701527103.452,19.609,19.609,-19.609,0.0056,-0.0017000000000000001,0.0046,0.004,-0.044,-0.109
1701527103.4919999,19.609,19.609,-19.609,-0.0012000000000000001,-0.0007,0.0057,-0.002,-0.052000000000000005,-0.108
1701527103.532,19.609,19.609,-19.609,0.0039000000000000003,-0.0039000000000000003,0.0173,-0.003,-0.044,-0.111
1701527103.572,19.609,19.609,-19.609,0.004200000000000001,-0.0025,0.001,-0.008,-0.047,-0.106
1701527103.612,19.609,19.609,-19.609,0.0051,-0.0025,0.0051,-0.003,-0.038,-0.106
1701527103.652,19.609,19.609,-19.609,-0.0001,-0.0012000000000000001,0.0076,-0.01,-0.029,-0.101
1701527103.692,19.609,19.609,-19.609,0.0025,0.0001,-0.0017000000000000001,-0.004,-0.039,-0.10400000000000001
1701527103.7319999,19.609,19.609,-19.609,0.0046,0.0001,0.0056,0.001,-0.033,-0.107
1701527103.772,19.609,19.609,-19.609,0.001,-0.0006000000000000001,-0.0032,-0.021,-0.047,-0.105
1701527103.812,19.609,19.609,-19.609,0.005,-0.0021000000000000003,0.011600000000000001,-0.022,-0.038,-0.117
1701527103.852,19.609,19.609,-19.609,0.0017000000000000001,-0.0007,0.009600000000000001,-0.016,-0.053,-0.106
1701527103.892,19.609,19.609,-19.609,0.0029000000000000002,-0.0001,0.0047,-0.007,-0.053,-0.117
1701527103.932,19.609,19.609,-19.609,0.0034000000000000002,-0.0019,0.0031000000000000003,0.002,-0.057,-0.111
1701527103.972,19.609,19.609,-19.609,0.0021000000000000003,-0.0011,0.0049,-0.004,-0.046,-0.111
1701527104.012,19.609,19.609,-19.609,0.0014,0.0,0.0094,-0.002,-0.055,-0.107
1701527104.052,19.609,19.609,-19.609,0.0009000000000000001,-0.0001,0.0106,-0.009000000000000001,-0.029,-0.111
1701527104.092,19.609,19.609,-19.609,0.0036000000000000003,0.0,0.0032,-0.007,-0.032,-0.10300000000000001
1701527104.132,19.609,19.609,-19.609,0.0031000000000000003,-0.0018000000000000002,-0.001,-0.035,-0.025,-0.1
1701527104.172,19.609,19.609,-19.609,0.0053,-0.0001,0.0032,-0.009000000000000001,-0.038,-0.10200000000000001
1701527104.212,19.609,19.609,-19.609,0.0019,-0.0001,0.0103,-0.012,-0.039,-0.109
1701527104.252,19.609,19.609,-19.609,0.0018000000000000002,-0.0023,0.0037,-0.014,-0.043000000000000003,-0.11
1701527104.292,19.609,19.609,-19.609,0.0034000000000000002,-0.0025,0.0118,-0.011,-0.045,-0.108
1701527104.332,19.609,19.609,-19.609,0.0037,0.0014,0.0037,0.002,-0.045,-0.097
1701527104.372,19.609,19.609,-19.609,0.0021000000000000003,-0.0009000000000000001,0.009000000000000001,-0.005,-0.024,-0.1
1701527104.412,19.609,19.609,-19.609,0.0043,0.00030000000000000003,0.01,-0.014,-0.007,-0.101
1701527104.452,19.609,19.609,-19.609,0.0013000000000000002,-0.0002,0.0067,0.0,-0.034,-0.105
1701527104.492,19.609,19.609,-19.609,0.0027,-0.0009000000000000001,0.004,-0.003,-0.045,-0.109
1701527104.532,19.609,19.609,-19.609,0.0026000000000000003,-0.0023,0.0064,0.007,-0.051000000000000004,-0.11
1701527104.572,19.609,19.609,-19.609,0.0014,-0.0011,0.006,0.002,-0.063,-0.117
1701527104.612,19.609,19.609,-19.609,0.0032,-0.0016,0.011000000000000001,-0.006,-0.054,-0.109
1701527104.652,19.609,19.609,-19.609,0.0031000000000000003,-0.0021000000000000003,0.0129,-0.009000000000000001,-0.056,-0.113
1701527104.692,19.609,19.609,-19.609,0.0024000000000000002,-0.0004,0.013600000000000001,-0.018000000000000002,-0.031,-0.11
1701527104.732,19.609,19.609,-19.609,0.0032,-0.001,0.010100000000000001,-0.011,-0.036000000000000004,-0.10400000000000001
1701527104.772,19.609,19.609,-19.609,0.0015,-0.0016,0.014,0.002,-0.043000000000000003,-0.10200000000000001
1701527104.812,19.609,19.609,-19.609,-0.001,0.0006000000000000001,0.003,0.002,-0.056,-0.113
1701527104.852,19.609,19.609,-19.609,0.004200000000000001,0.0021000000000000003,0.0026000000000000003,0.002,-0.062,-0.113
1701527104.892,19.609,19.609,-19.609,0.0033,-0.0014,0.0097,0.008,-0.08,-0.129
1701527104.932,19.609,19.609,-19.609,0.001,-0.0025,0.001,0.009000000000000001,-0.08600000000000001,-0.128
1701527104.972,19.609,19.609,-19.609,0.0018000000000000002,-0.0018000000000000002,0.0001,-0.002,-0.082,-0.123
1701527105.0119998,19.609,19.609,-19.609,0.0022,-0.0032,0.0194,0.007,-0.082,-0.129
1701527105.052,19.609,19.609,-19.609,0.004200000000000001,-0.0007,0.0201,-0.001,-0.076,-0.123
1701527105.092,19.609,19.609,-19.609,0.0014,0.00030000000000000003,0.012,0.002,-0.068,-0.117
1701527105.132,19.609,19.609,-19.609,0.0019,0.0005,0.0043,0.003,-0.062,-0.115
1701527105.172,19.609,19.609,-19.609,0.0024000000000000002,-0.0028,-0.0164,0.0,-0.055,-0.109
1701527105.212,19.609,19.609,-19.609,0.0024000000000000002,-0.0036000000000000003,0.0193,0.001,-0.05,-0.11
1701527105.2519999,19.609,19.609,-19.609,0.0,-0.0034000000000000002,-0.0007,-0.008,-0.049,-0.107
1701527105.292,19.609,19.609,-19.609,0.0021000000000000003,0.0002,0.0094,0.003,-0.064,-0.114
1701527105.332,19.609,19.609,-19.609,0.0034000000000000002,0.0,-0.0034000000000000002,-0.002,-0.058,-0.113
1701527105.372,19.609,19.609,-19.609,0.0047,-0.0023,0.0194,0.002,-0.05,-0.107
1701527105.412,19.609,19.609,-19.609,0.0054,-0.0009000000000000001,0.0099,-0.008,-0.026000000000000002,-0.10400000000000001
1701527105.452,19.609,19.609,-19.609,0.0039000000000000003,0.0001,0.0053,-0.007,-0.026000000000000002,-0.1
1701527105.4919999,19.609,19.609,-19.609,0.0014,-0.0009000000000000001,0.0103,0.001,-0.046,-0.106
1701527105.532,19.609,19.609,-19.609,0.0036000000000000003,-0.0014,0.0005,-0.001,-0.057,-0.116
1701527105.572,19.609,19.609,-19.609,0.004,-0.0009000000000000001,0.0053,0.004,-0.06,-0.112
1701527105.612,19.609,19.609,-19.609,0.002,-0.00030000000000000003,0.014700000000000001,0.002,-0.07100000000000001,-0.124
1701527105.652,19.609,19.609,-19.609,0.0011,0.0004,0.0061,0.002,-0.088,-0.121
1701527105.692,19.609,19.609,-19.609,0.004,0.0015,0.0018000000000000002,0.01,-0.065,-0.117
1701527105.7319999,19.609,19.609,-19.609,0.0046,-0.0017000000000000001,0.005,-0.01,-0.046,-0.109
1701527105.772,19.609,19.609,-19.609,0.0004,-0.0016,0.014700000000000001,0.0,-0.047,-0.113
1701527105.812,19.609,19.609,-19.609,0.0012000000000000001,-0.0009000000000000001,0.0025,-0.001,-0.056,-0.106
1701527105.852,19.609,19.609,-19.609,0.0009000000000000001,-0.0044,0.0106,0.018000000000000002,-0.061,-0.107
1701527105.892,19.609,19.609,-19.609,0.0015,-0.0014,0.0076,0.012,-0.069,-0.10300000000000001
1701527105.932,19.609,19.609,-19.609,0.0017000000000000001,-0.0009000000000000001,0.0048000000000000004,0.003,-0.078,-0.114
1701527105.972,19.609,19.609,-19.609,0.005,-0.0009000000000000001,0.013000000000000001,0.008,-0.101,-0.113
1701527106.012,19.609,19.609,-19.609,0.0025,0.0011,0.009000000000000001,0.008,-0.068,-0.112
1701527106.052,19.609,19.609,-19.609,0.0028,-0.0012000000000000001,-0.0006000000000000001,0.038,-0.062,-0.11
1701527106.092,19.609,19.609,-19.609,-0.0004,-0.0034000000000000002,0.0068000000000000005,0.004,-0.059000000000000004,-0.108
1701527106.132,19.609,19.609,-19.609,0.0033,-0.0015,0.004200000000000001,0.003,-0.056,-0.10300000000000001
1701527106.172,19.609,19.609,-19.609,0.0017000000000000001,-0.0011,0.0073,0.0,-0.061,-0.116
1701527106.212,19.609,19.609,-19.609,0.0023,-0.00030000000000000003,0.006500000000000001,-0.033,-0.063,-0.111
1701527106.252,19.609,19.609,-19.609,0.0011,-0.0017000000000000001,0.0064,0.004,-0.067,-0.116
1701527106.292,19.609,19.609,-19.609,0.0,-0.0016,0.0082,0.018000000000000002,-0.062,-0.116
1701527106.332,19.609,19.609,-19.609,0.0017000000000000001,-0.0023,0.005,0.005,-0.06,-0.112
1701527106.372,19.609,19.609,-19.609,0.0015,-0.0004,0.0056,0.012,-0.045,-0.101
1701527106.412,19.609,19.609,-19.609,0.0025,-0.0028,-0.0032,-0.01,-0.034,-0.10300000000000001
1701527106.452,19.609,19.609,-19.609,0.0026000000000000003,-0.0026000000000000003,0.0015,-0.004,-0.041,-0.109
1701527106.492,19.609,19.609,-19.609,-0.00030000000000000003,0.0,0.0023,0.004,-0.048,-0.109
1701527106.532,19.609,19.609,-19.609,0.0044,-0.002,-0.0017000000000000001,0.007,-0.058,-0.112
1701527106.572,19.609,19.609,-19.609,0.0028,-0.0021000000000000003,0.0122,0.009000000000000001,-0.056,-0.108
1701527106.612,19.609,19.609,-19.609,0.0035,-0.0001,0.0029000000000000002,0.002,-0.06,-0.114
1701527106.652,19.609,19.609,-19.609,0.0038,-0.0006000000000000001,0.0014,0.0,-0.055,-0.106
1701527106.692,19.609,19.609,-19.609,0.0015,-0.0004,0.008,-0.001,-0.053,-0.106
1701527106.732,19.609,19.609,-19.609,0.0016,0.0005,-0.0009000000000000001,-0.013000000000000001,-0.045,-0.109
1701527106.772,19.609,19.609,-19.609,0.0018000000000000002,-0.0026000000000000003,0.0134,0.006,-0.053,-0.11
1701527106.812,19.609,19.609,-19.609,0.0031000000000000003,-0.0035,0.007200000000000001,0.021,-0.063,-0.099
1701527106.852,19.609,19.609,-19.609,0.0026000000000000003,-0.0025,0.0143,0.022,-0.057,-0.11
1701527106.892,19.609,19.609,-19.609,0.0018000000000000002,0.0,0.027800000000000002,-0.009000000000000001,-0.055,-0.107
1701527106.932,19.609,19.609,-19.609,0.0039000000000000003,-0.0016,-0.0076,-0.006,-0.053,-0.112
1701527106.972,19.609,19.609,-19.609,0.0009000000000000001,-0.0017000000000000001,-0.0012000000000000001,-0.004,-0.059000000000000004,-0.10200000000000001
1701527107.0119998,19.609,19.609,-19.609,0.0027,-0.0006000000000000001,-0.0025,-0.002,-0.047,-0.10200000000000001
1701527107.052,19.609,19.609,-19.609,0.0036000000000000003,-0.0013000000000000002,0.018600000000000002,0.003,-0.049,-0.10400000000000001
1701527107.092,19.609,19.609,-19.609,0.0037,-0.002,0.007,0.003,-0.042,-0.109
1701527107.132,19.609,19.609,-19.609,0.0017000000000000001,-0.0012000000000000001,0.0159,-0.001,-0.038,-0.105
1701527107.172,19.609,19.609,-19.609,0.004,-0.0004,0.0164,-0.004,-0.041,-0.10400000000000001
1701527107.212,19.609,19.609,-19.609,0.0038,-0.0006000000000000001,0.0007,-0.001,-0.052000000000000005,-0.106
1701527107.2519999,19.609,19.609,-19.609,0.0036000000000000003,-0.0016,0.009000000000000001,-0.007,-0.048,-0.109
1701527107.292,19.609,19.609,-19.609,0.0007,-0.00030000000000000003,0.0053,-0.007,-0.041,-0.11
1701527107.332,19.609,19.609,-19.609,0.0043,0.0001,0.025500000000000002,-0.009000000000000001,-0.033,-0.094
1701527107.372,19.609,19.609,-19.609,-0.0012000000000000001,-0.0011,0.0053,-0.014,-0.024,-0.096
1701527107.412,19.609,19.609,-19.609,0.00030000000000000003,-0.0014,0.0057,-0.017,-0.031,-0.1
1701527107.452,19.609,19.609,-19.609,0.0006000000000000001,-0.001,0.0039000000000000003,-0.003,-0.04,-0.108
1701527107.4919999,19.609,19.609,-19.609,0.0035,-0.0011,0.0014,0.004,-0.061,-0.11
1701527107.532,19.609,19.609,-19.609,0.0007,-0.0006000000000000001,0.01,0.003,-0.065,-0.11
1701527107.572,19.609,19.609,-19.609,0.004,-0.002,0.010100000000000001,-0.003,-0.063,-0.117
1701527107.612,19.609,19.609,-19.609,0.0031000000000000003,0.0006000000000000001,0.0057,0.018000000000000002,-0.067,-0.11
1701527107.652,19.609,19.609,-19.609,0.0007,-0.0015,0.0134,-0.015,-0.046,-0.108
1701527107.692,19.609,19.609,-19.609,0.0029000000000000002,-0.0029000000000000002,0.0054,-0.006,-0.044,-0.112
1701527107.7319999,19.609,19.609,-19.609,0.002,0.0,-0.0017000000000000001,-0.023,-0.046,-0.097
1701527107.772,19.609,19.609,-19.609,0.0046,-0.0035,-0.00030000000000000003,0.002,-0.048,-0.10200000000000001
1701527107.812,19.609,19.609,-19.609,0.0032,-0.0025,0.008400000000000001,-0.001,-0.061,-0.112
1701527107.852,19.609,19.609,-19.609,0.0034000000000000002,-0.0014,0.0071,-0.004,-0.05,-0.11
1701527107.892,19.609,19.609,-19.609,0.0034000000000000002,-0.0004,-0.0051,0.001,-0.059000000000000004,-0.11900000000000001
1701527107.932,19.609,19.609,-19.609,0.0015,-0.0015,0.0045000000000000005,-0.003,-0.054,-0.108
1701527107.972,19.609,19.609,-19.609,0.0048000000000000004,-0.0031000000000000003,-0.00030000000000000003,0.004,-0.054,-0.114
1701527108.012,19.609,19.609,-19.609,0.002,-0.0008,0.004200000000000001,0.014,-0.046,-0.107
1701527108.052,19.609,19.609,-19.609,0.0027,0.0001,0.0034000000000000002,0.0,-0.038,-0.105
1701527108.092,19.609,19.609,-19.609,0.0016,-0.0025,0.0014,-0.01,-0.037,-0.10400000000000001
1701527108.132,19.609,19.609,-19.609,0.002,-0.0034000000000000002,0.0025,0.0,-0.045,-0.097
1701527108.172,19.609,19.609,-19.609,0.0034000000000000002,-0.0009000000000000001,0.014100000000000001,0.0,-0.044,-0.113
1701527108.212,19.609,19.609,-19.609,0.0039000000000000003,-0.0015,0.0142,0.003,-0.055,-0.115
1701527108.252,19.609,19.609,-19.609,0.0035,-0.0023,0.0007,-0.005,-0.046,-0.105
1701527108.292,19.609,19.609,-19.609,0.0018000000000000002,-0.0021000000000000003,0.014400000000000001,0.006,-0.045,-0.099
1701527108.332,19.609,19.609,-19.609,0.0026000000000000003,-0.0001,0.0009000000000000001,-0.004,-0.045,-0.109
1701527108.372,19.609,19.609,-19.609,0.002,-0.0012000000000000001,0.0099,-0.005,-0.048,-0.11
1701527108.412,19.609,19.609,-19.609,0.0026000000000000003,0.0,-0.001,0.006,-0.053,-0.10200000000000001
1701527108.452,19.609,19.609,-19.609,0.0034000000000000002,-0.0021000000000000003,0.0089,0.0,-0.049,-0.107
1701527108.492,19.609,19.609,-19.609,0.0018000000000000002,-0.0037,0.006200000000000001,-0.002,-0.045,-0.107
1701527108.532,19.609,19.609,-19.609,0.0013000000000000002,0.0001,0.0086,0.001,-0.058,-0.10300000000000001
1701527108.572,19.609,19.609,-19.609,0.0029000000000000002,-0.0026000000000000003,0.0017000000000000001,-0.018000000000000002,-0.049,-0.10400000000000001
1701527108.612,19.609,19.609,-19.609,0.0037,-0.00030000000000000003,0.014,-0.007,-0.051000000000000004,-0.106
1701527108.652,19.609,19.609,-19.609,0.005200000000000001,0.0002,0.0046,-0.005,-0.061,-0.109
1701527108.692,19.609,19.609,-19.609,0.0036000000000000003,0.0001,0.0122,-0.002,-0.06,-0.114
1701527108.732,19.609,19.609,-19.609,0.0048000000000000004,0.0004,-0.0012000000000000001,0.003,-0.059000000000000004,-0.107
1701527108.772,19.609,19.609,-19.609,0.0035,-0.0017000000000000001,-0.0083,0.012,-0.052000000000000005,-0.109
1701527108.812,19.609,19.609,-19.609,0.0021000000000000003,-0.0009000000000000001,0.0019,0.011,-0.055,-0.115
1701527108.852,19.609,19.609,-19.609,0.0004,-0.0041,0.024,0.008,-0.045,-0.105
1701527108.892,19.609,19.609,-19.609,0.0026000000000000003,-0.0033,0.0015,0.0,-0.06,-0.116
1701527108.932,19.609,19.609,-19.609,0.0033,-0.0021000000000000003,0.0057,-0.007,-0.051000000000000004,-0.111
1701527108.972,19.609,19.609,-19.609,0.0034000000000000002,-0.0028,0.0005,0.0,-0.055,-0.115
1701527109.0119998,19.609,19.609,-19.609,0.0059,0.0,-0.0034000000000000002,0.017,-0.055,-0.105
1701527109.052,19.609,19.609,-19.609,0.0023,0.0,0.0051,0.01,-0.051000000000000004,-0.107
1701527109.092,19.609,19.609,-19.609,0.0031000000000000003,-0.0032,0.004200000000000001,-0.002,-0.051000000000000004,-0.115
1701527109.132,19.609,19.609,-19.609,0.0034000000000000002,0.0009000000000000001,0.011600000000000001,-0.006,-0.032,-0.10300000000000001
1701527109.172,19.609,19.609,-19.609,0.004200000000000001,-0.00030000000000000003,0.006200000000000001,-0.001,-0.029,-0.098
1701527109.212,19.609,19.609,-19.609,0.004,-0.002,0.0023,-0.003,-0.034,-0.10200000000000001
1701527109.2519999,19.609,19.609,-19.609,0.0043,-0.002,0.0004,-0.002,-0.048,-0.11
1701527109.292,19.609,19.609,-19.609,0.002,-0.0012000000000000001,0.0056,-0.001,-0.056,-0.107
1701527109.332,19.609,19.609,-19.609,0.0025,-0.0013000000000000002,0.0041,0.004,-0.06,-0.10400000000000001
1701527109.372,19.609,19.609,-19.609,0.003,-0.0007,0.0079,0.004,-0.056,-0.113
1701527109.412,19.609,19.609,-19.609,0.0018000000000000002,-0.001,0.00030000000000000003,-0.004,-0.047,-0.108
1701527109.452,19.609,19.609,-19.609,0.0022,-0.0034000000000000002,0.007,-0.006,-0.061,-0.10400000000000001
1701527109.4919999,19.609,19.609,-19.609,0.002,0.0002,0.004200000000000001,-0.013000000000000001,-0.053,-0.10400000000000001
1701527109.532,19.609,19.609,-19.609,0.0045000000000000005,-0.0005,0.0018000000000000002,-0.003,-0.064,-0.107
1701527109.572,19.609,19.609,-19.609,0.0036000000000000003,-0.0014,0.0108,-0.002,-0.063,-0.11
1701527109.612,19.609,19.609,-19.609,0.002,-0.002,0.009000000000000001,-0.001,-0.083,-0.114
1701527109.652,19.609,19.609,-19.609,0.0026000000000000003,-0.0007,0.0171,-0.002,-0.05,-0.114
1701527109.692,19.609,19.609,-19.609,0.0021000000000000003,-0.0015,0.0082,-0.008,-0.044,-0.107
1701527109.7319999,19.609,19.609,-19.609,0.0022,-0.0029000000000000002,0.0109,-0.002,-0.043000000000000003,-0.106
1701527109.772,19.609,19.609,-19.609,0.0028,0.0007,0.0005,-0.007,-0.035,-0.109
1701527109.812,19.609,19.609,-19.609,0.0012000000000000001,0.0009000000000000001,0.0105,-0.001,-0.036000000000000004,-0.11
1701527109.852,19.609,19.609,-19.609,-0.0005,-0.0012000000000000001,0.01,-0.001,-0.038,-0.11
1701527109.892,19.609,19.609,-19.609,0.0029000000000000002,-0.0039000000000000003,-0.0001,0.0,-0.043000000000000003,-0.107
1701527109.932,19.609,19.609,-19.609,0.0035,-0.0002,-0.0005,-0.007,-0.048,-0.105
1701527109.972,19.609,19.609,-19.609,0.007200000000000001,0.001,0.0025,-0.004,-0.046,-0.107
1701527110.012,19.609,19.609,-19.609,0.0028,-0.0026000000000000003,0.00030000000000000003,-0.01,-0.037,-0.10200000000000001
1701527110.052,19.609,19.609,-19.609,0.0039000000000000003,-0.0015,0.0025,-0.007,-0.051000000000000004,-0.123
1701527110.092,19.609,19.609,-19.609,0.0033,-0.0002,0.0061,0.0,-0.041,-0.11
1701527110.132,19.609,19.609,-19.609,0.0051,-0.0014,0.0055000000000000005,-0.006,-0.041,-0.106
1701527110.172,19.609,19.609,-19.609,0.0023,-0.0021000000000000003,0.0051,-0.01,-0.031,-0.113
1701527110.212,19.609,19.609,-19.609,0.0029000000000000002,-0.0007,-0.008400000000000001,-0.005,-0.053,-0.116
1701527110.252,19.609,19.609,-19.609,0.0029000000000000002,-0.0012000000000000001,0.0285,0.001,-0.07200000000000001,-0.123
1701527110.292,19.609,19.609,-19.609,0.0047,-0.0035,0.0164,0.025,-0.08700000000000001,-0.109
1701527110.332,19.609,19.609,-19.609,-0.00030000000000000003,-0.002,0.009300000000000001,0.012,-0.07200000000000001,-0.116
1701527110.372,19.609,19.609,-19.609,0.0023,0.0,0.0029000000000000002,-0.01,-0.061,-0.116
1701527110.412,19.609,19.609,-19.609,0.0029000000000000002,0.0007,0.0092,0.005,-0.062,-0.107
1701527110.452,19.609,19.609,-19.609,0.0023,-0.0033,0.0015,0.005,-0.047,-0.111
1701527110.492,19.609,19.609,-19.609,0.0024000000000000002,0.0,0.0026000000000000003,-0.004,-0.035,-0.107
1701527110.532,19.609,19.609,-19.609,0.0038,-0.0006000000000000001,0.0055000000000000005,-0.002,-0.04,-0.10200000000000001
1701527110.572,19.609,19.609,-19.609,0.002,-0.0019,0.032,0.003,-0.045,-0.105
1701527110.612,19.609,19.609,-19.609,0.002,-0.0035,0.0172,0.001,-0.041,-0.101
1701527110.652,19.609,19.609,-19.609,0.0023,0.00030000000000000003,0.0216,-0.011,-0.034,-0.10400000000000001
1701527110.692,19.609,19.609,-19.609,0.001,-0.002,-0.005,-0.005,-0.041,-0.107
1701527110.732,19.609,19.609,-19.609,0.004200000000000001,-0.0012000000000000001,0.0155,-0.006,-0.032,-0.107
1701527110.772,19.609,19.609,-19.609,0.0039000000000000003,-0.0004,-0.0025,-0.001,-0.028,-0.11
1701527110.812,19.609,19.609,-19.609,0.0008,-0.0001,0.0047,-0.002,-0.032,-0.10400000000000001
1701527110.852,19.609,19.609,-19.609,0.0005,-0.0007,0.0064,0.005,-0.039,-0.10300000000000001
1701527110.892,19.609,19.609,-19.609,0.0026000000000000003,-0.002,0.0091,0.006,-0.05,-0.10300000000000001
1701527110.932,19.609,19.609,-19.609,0.0015,-0.0018000000000000002,0.0063,0.0,-0.06,-0.106
1701527110.972,19.609,19.609,-19.609,0.001,-0.0014,0.009300000000000001,0.0,-0.049,-0.108
1701527111.0119998,19.609,19.609,-19.609,0.001,0.0001,0.0031000000000000003,-0.006,-0.04,-0.113
1701527111.052,19.609,19.609,-19.609,0.0033,-0.0002,0.0098,0.005,-0.049,-0.10300000000000001
1701527111.092,19.609,19.609,-19.609,0.0018000000000000002,-0.0019,-0.0014,0.001,-0.044,-0.10300000000000001
1701527111.132,19.609,19.609,-19.609,0.0046,-0.0039000000000000003,0.0037,-0.002,-0.034,-0.11800000000000001
1701527111.172,19.609,19.609,-19.609,0.0017000000000000001,-0.001,-0.0017000000000000001,0.004,-0.046,-0.111
1701527111.212,19.609,19.609,-19.609,0.0034000000000000002,-0.0009000000000000001,0.0155,-0.001,-0.036000000000000004,-0.099
1701527111.2519999,19.609,19.609,-19.609,0.0023,-0.0037,0.0035,-0.006,-0.023,-0.097
1701527111.292,19.609,19.609,-19.609,0.0007,-0.0014,-0.0025,-0.01,-0.047,-0.097
1701527111.332,19.609,19.609,-19.609,0.0045000000000000005,-0.0015,0.0014,-0.011,-0.054,-0.10200000000000001
1701527111.372,19.609,19.609,-19.609,0.0034000000000000002,-0.0007,0.0143,-0.005,-0.03,-0.111
1701527111.412,19.609,19.609,-19.609,0.0013000000000000002,-0.0004,0.0059,0.009000000000000001,-0.034,-0.113
1701527111.452,19.609,19.609,-19.609,0.0031000000000000003,0.0015,0.0024000000000000002,-0.005,-0.043000000000000003,-0.114
1701527111.4919999,19.609,19.609,-19.609,0.0018000000000000002,-0.001,0.0194,-0.001,-0.048,-0.113
1701527111.532,19.609,19.609,-19.609,0.0031000000000000003,0.0026000000000000003,0.012400000000000001,-0.025,-0.042,-0.108
1701527111.572,19.609,19.609,-19.609,0.0012000000000000001,-0.0012000000000000001,0.010100000000000001,-0.009000000000000001,-0.033,-0.108
1701527111.612,19.609,19.609,-19.609,0.0038,-0.0012000000000000001,0.0109,-0.006,-0.031,-0.10400000000000001
1701527111.652,19.609,19.609,-19.609,0.0031000000000000003,0.0,0.002,-0.003,-0.05,-0.112
1701527111.692,19.609,19.609,-19.609,0.0007,-0.0004,0.0041,0.0,-0.054,-0.10300000000000001
1701527111.7319999,19.609,19.609,-19.609,0.0025,-0.0025,0.0078000000000000005,-0.007,-0.051000000000000004,-0.107
1701527111.772,19.609,19.609,-19.609,0.0037,0.0006000000000000001,0.0077,-0.006,-0.057,-0.11
1701527111.812,19.609,19.609,-19.609,0.0022,-0.0009000000000000001,0.0067,0.002,-0.058,-0.107
1701527111.852,19.609,19.609,-19.609,0.0028,-0.0009000000000000001,0.0119,-0.005,-0.054,-0.106
1701527111.892,19.609,19.609,-19.609,0.0027,0.0,0.0033,0.002,-0.06,-0.101
1701527111.932,19.609,19.609,-19.609,0.003,-0.0019,-0.0008,-0.003,-0.046,-0.10400000000000001
1701527111.972,19.609,19.609,-19.609,0.0014,-0.0004,0.004,0.002,-0.044,-0.105
1701527112.012,19.609,19.609,-19.609,0.004200000000000001,-0.0034000000000000002,0.016900000000000002,0.002,-0.046,-0.101
1701527112.052,19.609,19.609,-19.609,0.004200000000000001,-0.0025,0.009000000000000001,0.006,-0.041,-0.093
1701527112.092,19.609,19.609,-19.609,0.0025,-0.0007,-0.008400000000000001,0.005,-0.044,-0.101
1701527112.132,19.609,19.609,-19.609,0.0019,-0.0001,0.0238,0.001,-0.044,-0.106
1701527112.172,19.609,19.609,-19.609,0.0001,-0.0021000000000000003,0.013000000000000001,0.004,-0.044,-0.11
1701527112.212,19.609,19.609,-19.609,0.0047,-0.0017000000000000001,0.004200000000000001,-0.003,-0.041,-0.10300000000000001
1701527112.252,19.609,19.609,-19.609,0.002,0.0006000000000000001,-0.0012000000000000001,-0.002,-0.049,-0.111
1701527112.292,19.609,19.609,-19.609,0.0031000000000000003,-0.0018000000000000002,0.007200000000000001,0.005,-0.042,-0.112
1701527112.332,19.609,19.609,-19.609,0.0053,-0.0009000000000000001,0.009300000000000001,0.02,-0.053,-0.094
1701527112.372,19.609,19.609,-19.609,0.0031000000000000003,-0.0009000000000000001,0.0056,0.002,-0.043000000000000003,-0.106
1701527112.412,19.609,19.609,-19.609,0.0024000000000000002,-0.0004,0.0007,-0.013000000000000001,-0.041,-0.106
1701527112.452,19.609,19.609,-19.609,-0.0005,-0.0016,0.0217,-0.007,-0.044,-0.105
1701527112.492,19.609,19.609,-19.609,0.0027,-0.0014,0.0159,0.001,-0.04,-0.107
1701527112.532,19.609,19.609,-19.609,0.0,-0.002,0.003,0.005,-0.04,-0.112
1701527112.572,19.609,19.609,-19.609,0.003,-0.002,-0.0021000000000000003,0.008,-0.056,-0.10400000000000001
1701527112.612,19.609,19.609,-19.609,0.0044,-0.0012000000000000001,0.0128,0.007,-0.049,-0.107
1701527112.652,19.609,19.609,-19.609,0.0019,-0.0005,0.0083,0.007,-0.044,-0.106
1701527112.692,19.609,19.609,-19.609,0.0038,-0.0023,0.001,-0.004,-0.046,-0.114
1701527112.732,19.609,19.609,-19.609,0.0045000000000000005,-0.0014,0.0046,0.002,-0.049,-0.109
1701527112.772,19.609,19.609,-19.609,0.004,-0.0032,0.016800000000000002,0.012,-0.048,-0.10200000000000001
1701527112.812,19.609,19.609,-19.609,0.00030000000000000003,-0.0012000000000000001,-0.0005,0.015,-0.051000000000000004,-0.105
1701527112.852,19.609,19.609,-19.609,0.0022,-0.0004,0.0037,0.011,-0.052000000000000005,-0.111
1701527112.892,19.609,19.609,-19.609,0.0017000000000000001,-0.0017000000000000001,0.0122,0.009000000000000001,-0.052000000000000005,-0.101
1701527112.932,19.609,19.609,-19.609,0.0017000000000000001,0.0017000000000000001,0.0064,0.0,-0.038,-0.106
1701527112.972,19.609,19.609,-19.609,0.0031000000000000003,-0.0018000000000000002,0.0054,-0.006,-0.038,-0.109
1701527113.0119998,19.609,19.609,-19.609,0.0034000000000000002,-0.0028,0.004,-0.003,-0.044,-0.105
1701527113.052,19.609,19.609,-19.609,0.003,-0.001,0.0031000000000000003,0.008,-0.05,-0.111
1701527113.092,19.609,19.609,-19.609,0.0025,-0.0025,0.0095,0.018000000000000002,-0.048,-0.101
1701527113.132,19.609,19.609,-19.609,0.0051,-0.0017000000000000001,0.0008,0.001,-0.049,-0.105
1701527113.172,19.609,19.609,-19.609,0.0048000000000000004,-0.0014,0.0037,-0.01,-0.049,-0.109
1701527113.212,19.609,19.609,-19.609,0.002,-0.0016,-0.0015,-0.005,-0.052000000000000005,-0.115
1701527113.2519999,19.609,19.609,-19.609,0.0031000000000000003,-0.0017000000000000001,0.0143,0.015,-0.056,-0.106
1701527113.292,19.609,19.609,-19.609,0.001,-0.0005,0.0011,0.005,-0.057,-0.10200000000000001
1701527113.332,19.609,19.609,-19.609,0.0021000000000000003,-0.0022,0.0016,-0.001,-0.051000000000000004,-0.1
1701527113.372,19.609,19.609,-19.609,0.0043,-0.0016,0.0034000000000000002,0.001,-0.049,-0.112
1701527113.412,19.609,19.609,-19.609,0.004200000000000001,-0.0018000000000000002,0.015600000000000001,-0.001,-0.054,-0.113
1701527113.452,19.609,19.609,-19.609,-0.0001,-0.0006000000000000001,0.0025,0.012,-0.061,-0.105
1701527113.4919999,19.609,19.609,-19.609,0.0012000000000000001,-0.0015,0.0071,0.004,-0.05,-0.105
1701527113.532,19.609,19.609,-19.609,0.0017000000000000001,-0.0001,0.0032,0.0,-0.041,-0.097
1701527113.572,19.609,19.609,-19.609,0.001,0.0002,0.00030000000000000003,-0.002,-0.041,-0.109
1701527113.612,19.609,19.609,-19.609,0.0038,-0.0007,-0.001,-0.002,-0.046,-0.107
1701527113.652,19.609,19.609,-19.609,0.0028,-0.001,0.0134,0.014,-0.049,-0.10400000000000001
1701527113.692,19.609,19.609,-19.609,0.0017000000000000001,-0.0005,0.0018000000000000002,-0.005,-0.05,-0.109
1701527113.7319999,19.609,19.609,-19.609,0.001,0.0,0.006500000000000001,-0.009000000000000001,-0.044,-0.101
1701527113.772,19.609,19.609,-19.609,0.0048000000000000004,0.0,0.02,-0.015,-0.042,-0.106
1701527113.812,19.609,19.609,-19.609,0.0031000000000000003,-0.0006000000000000001,-0.0018000000000000002,-0.003,-0.044,-0.106
1701527113.852,19.609,19.609,-19.609,0.0029000000000000002,0.0009000000000000001,0.0125,0.008,-0.036000000000000004,-0.099
1701527113.892,19.609,19.609,-19.609,0.004200000000000001,-0.0005,-0.0031000000000000003,0.001,-0.054,-0.106
1701527113.932,19.609,19.609,-19.609,0.0012000000000000001,-0.0018000000000000002,0.0037,0.001,-0.062,-0.11
1701527113.972,19.609,19.609,-19.609,0.0046,-0.0011,-0.0019,0.009000000000000001,-0.056,-0.111
1701527114.012,19.609,19.609,-19.609,0.0056,-0.0013000000000000002,0.009000000000000001,0.009000000000000001,-0.052000000000000005,-0.114
1701527114.052,19.609,19.609,-19.609,0.0023,-0.0017000000000000001,-0.0009000000000000001,0.0,-0.051000000000000004,-0.10200000000000001
1701527114.092,19.609,19.609,-19.609,0.0048000000000000004,-0.0015,0.0159,0.004,-0.049,-0.101
1701527114.132,19.609,19.609,-19.609,0.0025,-0.0007,0.0086,-0.001,-0.048,-0.105
1701527114.172,19.609,19.609,-19.609,0.005,0.0,-0.006200000000000001,-0.003,-0.049,-0.108
1701527114.212,19.609,19.609,-19.609,0.003,0.0013000000000000002,0.025,-0.003,-0.052000000000000005,-0.106
1701527114.252,19.609,19.609,-19.609,0.0023,-0.0025,-0.0122,-0.002,-0.042,-0.107
1701527114.292,19.609,19.609,-19.609,0.0035,-0.0017000000000000001,0.0063,0.002,-0.049,-0.111
1701527114.332,19.609,19.609,-19.609,0.0038,-0.002,-0.0035,-0.002,-0.049,-0.105
1701527114.372,19.609,19.609,-19.609,0.002,-0.0009000000000000001,0.008,-0.003,-0.048,-0.105
1701527114.412,19.609,19.609,-19.609,0.0035,0.0004,0.009300000000000001,0.003,-0.062,-0.115
1701527114.452,19.609,19.609,-19.609,0.0007,-0.0012000000000000001,0.0014,-0.009000000000000001,-0.05,-0.106
1701527114.492,19.609,19.609,-19.609,0.0007,0.0005,0.0029000000000000002,-0.003,-0.052000000000000005,-0.114
1701527114.532,19.609,19.609,-19.609,0.0024000000000000002,-0.0012000000000000001,0.008,-0.002,-0.045,-0.108
1701527114.572,19.609,19.609,-19.609,0.0016,0.0001,0.0098,0.006,-0.043000000000000003,-0.108
1701527114.612,19.609,19.609,-19.609,0.0031000000000000003,-0.0009000000000000001,0.006900000000000001,0.004,-0.047,-0.105
1701527114.652,19.609,19.609,-19.609,0.0053,0.0005,0.0027,0.007,-0.053,-0.106
1701527114.692,19.609,19.609,-19.609,0.0068000000000000005,-0.0007,-0.0031000000000000003,0.005,-0.063,-0.114
1701527114.732,19.609,19.609,-19.609,-0.0028,-0.0027,0.0076,-0.01,-0.05,-0.107
1701527114.772,19.609,19.609,-19.609,0.004,0.0004,0.0043,0.012,-0.046,-0.105
1701527114.812,19.609,19.609,-19.609,0.0006000000000000001,-0.0028,0.0079,-0.004,-0.08700000000000001,-0.107
1701527114.852,19.609,19.609,-19.609,0.0033,0.0009000000000000001,0.006900000000000001,0.0,-0.041,-0.105
1701527114.892,19.609,19.609,-19.609,0.0036000000000000003,-0.0024000000000000002,0.0085,0.002,-0.051000000000000004,-0.11
1701527114.932,19.609,19.609,-19.609,0.002,-0.0005,0.0036000000000000003,0.009000000000000001,-0.047,-0.105
1701527114.972,19.609,19.609,-19.609,0.0056,-0.0006000000000000001,0.0037,0.012,-0.038,-0.106
1701527115.0119998,19.609,19.609,-19.609,0.001,0.0009000000000000001,0.0089,-0.029,-0.054,-0.105
1701527115.052,19.609,19.609,-19.609,0.0016,-0.0031000000000000003,0.0076,0.009000000000000001,-0.033,-0.112
1701527115.092,19.609,19.609,-19.609,0.0035,-0.0037,0.0028,0.004,-0.059000000000000004,-0.112
1701527115.132,19.609,19.609,-19.609,0.0015,0.0014,0.0137,0.0,-0.056,-0.11
1701527115.172,19.609,19.609,-19.609,0.0058000000000000005,-0.0009000000000000001,0.0051,0.0,-0.044,-0.107
1701527115.212,19.609,19.609,-19.609,0.0028,-0.0012000000000000001,0.0,0.0,-0.049,-0.106
1701527115.2519999,19.609,19.609,-19.609,0.0024000000000000002,-0.0007,0.0077,0.0,-0.056,-0.107
1701527115.292,19.609,19.609,-19.609,0.0023,-0.0016,-0.0029000000000000002,0.015,-0.043000000000000003,-0.10300000000000001
1701527115.332,19.609,19.609,-19.609,0.0036000000000000003,-0.0002,0.0081,-0.004,-0.069,-0.109
1701527115.372,19.609,19.609,-19.609,0.002,-0.0019,0.0036000000000000003,0.0,-0.039,-0.111
1701527115.412,19.609,19.609,-19.609,0.0023,-0.0036000000000000003,-0.0025,-0.004,-0.041,-0.1
1701527115.452,19.609,19.609,-19.609,0.0036000000000000003,-0.0012000000000000001,0.0142,-0.008,-0.037,-0.098
1701527115.4919999,19.609,19.609,-19.609,0.0017000000000000001,-0.0009000000000000001,0.0137,-0.002,-0.036000000000000004,-0.10300000000000001
1701527115.532,19.609,19.609,-19.609,0.007200000000000001,0.0013000000000000002,0.0089,-0.002,-0.032,-0.105
1701527115.572,19.609,19.609,-19.609,0.0019,-0.0004,0.0092,0.005,-0.043000000000000003,-0.098
1701527115.612,19.609,19.609,-19.609,0.001,-0.0019,0.008700000000000001,0.002,-0.045,-0.107
1701527115.652,19.609,19.609,-19.609,0.0014,-0.0017000000000000001,-0.0021000000000000003,0.0,-0.054,-0.106
1701527115.692,19.609,19.609,-19.609,0.0024000000000000002,-0.003,-0.0024000000000000002,-0.006,-0.043000000000000003,-0.105
1701527115.7319999,19.609,19.609,-19.609,0.0044,-0.0001,0.0031000000000000003,-0.001,-0.046,-0.111
1701527115.772,19.609,19.609,-19.609,0.0026000000000000003,-0.002,0.0012000000000000001,0.003,-0.042,-0.111
1701527115.812,19.609,19.609,-19.609,0.0053,-0.0031000000000000003,0.0067,0.005,-0.047,-0.11
1701527115.852,19.609,19.609,-19.609,0.0027,0.0006000000000000001,0.0079,0.012,-0.042,-0.111
1701527115.892,19.609,19.609,-19.609,0.0037,-0.0005,0.013600000000000001,0.013000000000000001,-0.064,-0.115
1701527115.932,19.609,19.609,-19.609,0.0038,-0.0021000000000000003,0.0043,0.01,-0.067,-0.114
1701527115.972,19.609,19.609,-19.609,0.002,-0.0007,0.0016,0.005,-0.066,-0.11
1701527116.012,19.609,19.609,-19.609,0.0018000000000000002,-0.0013000000000000002,-0.010100000000000001,0.0,-0.057,-0.114
1701527116.052,19.609,19.609,-19.609,0.003,0.0007,0.029500000000000002,0.001,-0.052000000000000005,-0.107
1701527116.092,19.609,19.609,-19.609,0.0048000000000000004,0.0015,-0.0021000000000000003,0.004,-0.052000000000000005,-0.105
1701527116.132,19.609,19.609,-19.609,0.0017000000000000001,-0.0023,0.0048000000000000004,-0.008,-0.049,-0.107
1701527116.172,19.609,19.609,-19.609,0.004200000000000001,0.0006000000000000001,0.0166,-0.008,-0.038,-0.105
1701527116.212,19.609,19.609,-19.609,0.0046,-0.002,0.0077,-0.007,-0.045,-0.106
1701527116.252,19.609,19.609,-19.609,0.0036000000000000003,-0.0017000000000000001,0.0028,-0.006,-0.043000000000000003,-0.106
1701527116.292,19.609,19.609,-19.609,0.0026000000000000003,-0.0018000000000000002,0.008700000000000001,-0.01,-0.033,-0.105
1701527116.332,19.609,19.609,-19.609,0.0025,0.0012000000000000001,0.00030000000000000003,-0.009000000000000001,-0.037,-0.098
1701527116.372,19.609,19.609,-19.609,0.001,-0.00030000000000000003,0.0039000000000000003,-0.002,-0.028,-0.108
1701527116.412,19.609,19.609,-19.609,0.005200000000000001,0.0004,0.0063,-0.001,-0.033,-0.105
1701527116.452,19.609,19.609,-19.609,0.0015,-0.001,-0.0029000000000000002,0.001,-0.041,-0.109
1701527116.492,19.609,19.609,-19.609,0.0036000000000000003,-0.0009000000000000001,0.023200000000000002,0.005,-0.034,-0.10400000000000001
1701527116.532,19.609,19.609,-19.609,0.0017000000000000001,0.0007,-0.0017000000000000001,0.001,-0.061,-0.11800000000000001
1701527116.572,19.609,19.609,-19.609,0.004,-0.001,0.0057,0.004,-0.056,-0.11
1701527116.612,19.609,19.609,-19.609,0.0032,-0.0004,0.0055000000000000005,-0.01,-0.043000000000000003,-0.108
1701527116.652,19.609,19.609,-19.609,0.0017000000000000001,0.0,0.0117,-0.01,-0.043000000000000003,-0.105
1701527116.692,19.609,19.609,-19.609,0.004,-0.0016,0.0086,-0.005,-0.036000000000000004,-0.099
1701527116.732,19.609,19.609,-19.609,0.002,0.0007,0.006500000000000001,0.0,-0.039,-0.113
1701527116.772,19.609,19.609,-19.609,0.0033,0.0021000000000000003,-0.0013000000000000002,-0.004,-0.043000000000000003,-0.107
1701527116.812,19.609,19.609,-19.609,0.006900000000000001,-0.0021000000000000003,0.009000000000000001,-0.001,-0.042,-0.10300000000000001
1701527116.852,19.609,19.609,-19.609,0.002,-0.0011,0.0059,-0.003,-0.053,-0.109
1701527116.892,19.609,19.609,-19.609,0.0043,-0.0009000000000000001,0.012,0.001,-0.057,-0.112
1701527116.932,19.609,19.609,-19.609,0.0051,-0.0014,0.0047,0.0,-0.038,-0.105
1701527116.972,19.609,19.609,-19.609,0.0002,-0.0034000000000000002,0.0056,-0.002,-0.042,-0.105
1701527117.0119998,19.609,19.609,-19.609,0.0009000000000000001,-0.0023,-0.0015,-0.013000000000000001,-0.029,-0.11
1701527117.052,19.609,19.609,-19.609,0.0018000000000000002,-0.0006000000000000001,0.0092,-0.002,-0.034,-0.099
1701527117.092,19.609,19.609,-19.609,0.0046,0.0001,0.005,-0.005,-0.043000000000000003,-0.10200000000000001
1701527117.132,19.609,19.609,-19.609,0.0036000000000000003,-0.0015,-0.0027,-0.007,-0.032,-0.101
1701527117.172,19.609,19.609,-19.609,0.0028,0.0022,0.0026000000000000003,-0.004,-0.032,-0.105
1701527117.212,19.609,19.609,-19.609,0.0026000000000000003,-0.0006000000000000001,0.0078000000000000005,-0.002,-0.026000000000000002,-0.107
1701527117.2519999,19.609,19.609,-19.609,0.0049,0.0006000000000000001,0.0128,-0.006,-0.034,-0.10300000000000001
1701527117.292,19.609,19.609,-19.609,0.0038,-0.0031000000000000003,0.004200000000000001,-0.005,-0.032,-0.10200000000000001
1701527117.332,19.609,19.609,-19.609,-0.0017000000000000001,-0.00030000000000000003,0.0103,-0.002,-0.032,-0.107
1701527117.372,19.609,19.609,-19.609,0.0034000000000000002,-0.0018000000000000002,0.008400000000000001,-0.005,-0.017,-0.109
1701527117.412,19.609,19.609,-19.609,0.0005,-0.0012000000000000001,0.0082,-0.003,-0.041,-0.107
1701527117.452,19.609,19.609,-19.609,0.0056,0.0001,0.0083,0.0,-0.052000000000000005,-0.111
1701527117.4919999,19.609,19.609,-19.609,0.0039000000000000003,-0.00030000000000000003,0.007,0.005,-0.049,-0.114
1701527117.532,19.609,19.609,-19.609,0.0032,0.0,0.0046,-0.006,-0.037,-0.106
1701527117.572,19.609,19.609,-19.609,0.0036000000000000003,0.00030000000000000003,0.005200000000000001,-0.004,-0.036000000000000004,-0.10200000000000001
1701527117.612,19.609,19.609,-19.609,0.0046,0.0,0.0035,-0.009000000000000001,-0.033,-0.10200000000000001
1701527117.652,19.609,19.609,-19.609,0.0009000000000000001,-0.0004,0.0021000000000000003,-0.005,-0.036000000000000004,-0.101
1701527117.692,19.609,19.609,-19.609,0.0031000000000000003,-0.0015,0.0005,-0.002,-0.04,-0.105
1701527117.7319999,19.609,19.609,-19.609,0.0013000000000000002,-0.0006000000000000001,0.0112,-0.008,-0.039,-0.112
1701527117.772,19.609,19.609,-19.609,0.0047,0.0013000000000000002,0.007,-0.005,-0.036000000000000004,-0.106
1701527117.812,19.609,19.609,-19.609,0.0043,-0.0004,-0.0036000000000000003,-0.005,-0.036000000000000004,-0.106
1701527117.852,19.609,19.609,-19.609,0.0001,-0.001,0.026600000000000002,-0.005,-0.038,-0.108
1701527117.892,19.609,19.609,-19.609,0.003,0.0017000000000000001,-0.0123,-0.005,-0.037,-0.111
1701527117.932,19.609,19.609,-19.609,0.0027,-0.0031000000000000003,-0.0109,-0.003,-0.032,-0.105
1701527117.972,19.609,19.609,-19.609,0.0006000000000000001,0.0004,0.001,-0.006,-0.035,-0.105
1701527118.012,19.609,19.609,-19.609,0.0012000000000000001,0.0,0.020300000000000002,-0.003,-0.041,-0.107
1701527118.052,19.609,19.609,-19.609,0.0037,-0.0004,0.005200000000000001,0.001,-0.039,-0.105
1701527118.092,19.609,19.609,-19.609,0.0043,-0.00030000000000000003,0.0189,-0.001,-0.035,-0.105
1701527118.132,19.609,19.609,-19.609,0.0032,-0.0025,0.0004,-0.008,-0.038,-0.10300000000000001
1701527118.172,19.609,19.609,-19.609,0.0031000000000000003,0.0,0.004200000000000001,0.0,-0.035,-0.11
1701527118.212,19.609,19.609,-19.609,0.0021000000000000003,-0.0001,-0.0007,-0.009000000000000001,-0.037,-0.10400000000000001
1701527118.252,19.609,19.609,-19.609,0.002,0.00030000000000000003,0.0053,-0.004,-0.047,-0.112
1701527118.292,19.609,19.609,-19.609,0.0036000000000000003,0.0002,0.0005,-0.003,-0.036000000000000004,-0.10300000000000001
1701527118.332,19.609,19.609,-19.609,0.0032,-0.0009000000000000001,0.0067,0.004,-0.043000000000000003,-0.108
1701527118.372,19.609,19.609,-19.609,0.0045000000000000005,-0.0008,0.0066,0.005,-0.036000000000000004,-0.107
1701527118.412,19.609,19.609,-19.609,0.0033,0.0,0.0064,0.002,-0.03,-0.109
1701527118.452,19.609,19.609,-19.609,0.0032,-0.0006000000000000001,-0.0058000000000000005,0.002,-0.034,-0.105
1701527118.492,19.609,19.609,-19.609,0.0037,-0.0009000000000000001,0.0067,0.004,-0.051000000000000004,-0.10300000000000001
1701527118.532,19.609,19.609,-19.609,0.0002,0.0006000000000000001,0.0054,-0.001,-0.053,-0.109
1701527118.572,19.609,19.609,-19.609,0.0043,-0.0027,0.006,0.008,-0.044,-0.108
1701527118.612,19.609,19.609,-19.609,0.0025,-0.0013000000000000002,0.006200000000000001,-0.013000000000000001,-0.031,-0.106
1701527118.652,19.609,19.609,-19.609,0.0034000000000000002,-0.0013000000000000002,-0.0018000000000000002,-0.009000000000000001,-0.031,-0.10400000000000001
1701527118.692,19.609,19.609,-19.609,0.005200000000000001,-0.0011,0.0189,0.024,-0.034,-0.107
1701527118.732,19.609,19.609,-19.609,0.0047,0.0012000000000000001,0.0016,-0.008,-0.03,-0.105
1701527118.772,19.609,19.609,-19.609,0.0021000000000000003,0.0007,0.018600000000000002,-0.032,-0.041,-0.10300000000000001
1701527118.812,19.609,19.609,-19.609,0.0055000000000000005,-0.001,-0.009000000000000001,-0.001,-0.038,-0.106
1701527118.852,19.609,19.609,-19.609,0.0026000000000000003,0.0002,0.014400000000000001,0.003,-0.026000000000000002,-0.106
1701527118.892,19.609,19.609,-19.609,0.0014,-0.0015,-0.0022,0.004,-0.031,-0.112
1701527118.932,19.609,19.609,-19.609,0.0032,-0.001,0.0094,-0.001,-0.064,-0.10200000000000001
1701527118.972,19.609,19.609,-19.609,0.002,-0.0019,0.0046,-0.004,-0.029,-0.107
1701527119.0119998,19.609,19.609,-19.609,0.002,0.0,0.0053,-0.002,-0.035,-0.097
1701527119.052,19.609,19.609,-19.609,0.00030000000000000003,0.0021000000000000003,-0.0028,0.0,-0.032,-0.1
1701527119.092,19.609,19.609,-19.609,0.0006000000000000001,-0.0014,0.008400000000000001,-0.004,-0.035,-0.10200000000000001
1701527119.132,19.609,19.609,-19.609,0.0006000000000000001,-0.0018000000000000002,0.0079,-0.005,-0.038,-0.107
1701527119.172,19.609,19.609,-19.609,0.0021000000000000003,-0.0004,0.0053,-0.004,-0.041,-0.10400000000000001
1701527119.212,19.609,19.609,-19.609,0.0014,0.0011,0.0013000000000000002,-0.007,-0.035,-0.097
1701527119.2519999,19.609,19.609,-19.609,0.0014,-0.0001,0.0108,-0.004,-0.032,-0.10300000000000001
1701527119.292,19.609,19.609,-19.609,0.0015,0.0,0.0,-0.008,-0.04,-0.10400000000000001
1701527119.332,19.609,19.609,-19.609,0.0028,-0.0009000000000000001,0.004,-0.006,-0.044,-0.1
1701527119.372,19.609,19.609,-19.609,0.002,0.00030000000000000003,0.0021000000000000003,0.001,-0.038,-0.114
1701527119.412,19.609,19.609,-19.609,0.0023,-0.0038,-0.0029000000000000002,0.005,-0.038,-0.10400000000000001
1701527119.452,19.609,19.609,-19.609,0.0021000000000000003,0.0012000000000000001,0.0089,-0.001,-0.041,-0.105
1701527119.4919999,19.609,19.609,-19.609,0.0005,-0.0006000000000000001,0.010700000000000001,0.002,-0.038,-0.106
1701527119.532,19.609,19.609,-19.609,0.0028,-0.0018000000000000002,-0.0009000000000000001,-0.008,-0.036000000000000004,-0.10400000000000001
1701527119.572,19.609,19.609,-19.609,0.0036000000000000003,-0.0007,0.0105,-0.006,-0.026000000000000002,-0.108
1701527119.612,19.609,19.609,-19.609,0.0009000000000000001,-0.0002,0.010100000000000001,-0.003,-0.032,-0.113
1701527119.652,19.609,19.609,-19.609,0.0033,-0.001,-0.0063,-0.004,-0.039,-0.106
1701527119.692,19.609,19.609,-19.609,0.0037,-0.0001,-0.009000000000000001,-0.006,-0.041,-0.112
1701527119.7319999,19.609,19.609,-19.609,0.0035,-0.004,-0.010100000000000001,-0.002,-0.044,-0.108
1701527119.772,19.609,19.609,-19.609,0.0018000000000000002,-0.0004,0.0,0.0,-0.041,-0.097
1701527119.812,19.609,19.609,-19.609,0.0014,-0.0038,0.009300000000000001,-0.005,-0.033,-0.10200000000000001
1701527119.852,19.609,19.609,-19.609,0.002,-0.0024000000000000002,0.0051,-0.006,-0.04,-0.108
1701527119.892,19.609,19.609,-19.609,-0.0007,-0.0029000000000000002,0.0106,0.003,-0.034,-0.107
1701527119.932,19.609,19.609,-19.609,0.0018000000000000002,-0.0025,0.0046,0.0,-0.04,-0.11
1701527119.972,19.609,19.609,-19.609,0.0039000000000000003,0.0017000000000000001,0.0024000000000000002,0.0,-0.045,-0.098
1701527120.012,19.609,19.609,-19.609,0.0012000000000000001,-0.0012000000000000001,0.0051,-0.003,-0.046,-0.107
1701527120.052,19.609,19.609,-19.609,0.0023,0.0001,0.0091,0.0,-0.049,-0.109
1701527120.092,19.609,19.609,-19.609,0.004200000000000001,-0.0017000000000000001,-0.0068000000000000005,0.0,-0.043000000000000003,-0.109
1701527120.132,19.609,19.609,-19.609,0.0032,-0.0018000000000000002,0.020900000000000002,-0.001,-0.044,-0.10400000000000001
1701527120.172,19.609,19.609,-19.609,0.0016,0.001,0.0054,-0.001,-0.044,-0.1
1701527120.212,19.609,19.609,-19.609,0.0028,-0.0007,-0.0002,-0.007,-0.042,-0.105
1701527120.252,19.609,19.609,-19.609,0.0017000000000000001,-0.0015,-0.0016,-0.001,-0.048,-0.106
1701527120.292,19.609,19.609,-19.609,0.0038,-0.0021000000000000003,0.0066,0.001,-0.043000000000000003,-0.105
1701527120.332,19.609,19.609,-19.609,0.0011,-0.0025,0.0083,-0.001,-0.042,-0.10300000000000001
1701527120.372,19.609,19.609,-19.609,0.0033,-0.0012000000000000001,0.0149,0.005,-0.045,-0.105
1701527120.412,19.609,19.609,-19.609,-0.0001,0.0001,0.0106,0.0,-0.043000000000000003,-0.108
1701527120.452,19.609,19.609,-19.609,0.0039000000000000003,-0.0026000000000000003,0.0014,-0.004,-0.035,-0.11
1701527120.492,19.609,19.609,-19.609,0.0029000000000000002,-0.001,0.005,0.0,-0.047,-0.093
1701527120.532,19.609,19.609,-19.609,0.0009000000000000001,0.0015,0.0067,-0.024,-0.051000000000000004,-0.107
1701527120.572,19.609,19.609,-19.609,0.0025,-0.002,0.001,0.003,-0.041,-0.105
1701527120.612,19.609,19.609,-19.609,0.0027,0.0005,0.0021000000000000003,0.001,-0.052000000000000005,-0.111
1701527120.652,19.609,19.609,-19.609,0.002,-0.0019,0.008700000000000001,-0.008,-0.04,-0.111
1701527120.692,19.609,19.609,-19.609,0.0037,-0.00030000000000000003,0.0095,-0.003,-0.025,-0.112
1701527120.732,19.609,19.609,-19.609,0.0037,0.0004,0.0031000000000000003,-0.056,-0.037,-0.10300000000000001
1701527120.772,19.609,19.609,-19.609,0.002,-0.001,0.0032,0.0,-0.029,-0.107
1701527120.812,19.609,19.609,-19.609,0.0008,-0.00030000000000000003,0.0036000000000000003,0.009000000000000001,-0.047,-0.10300000000000001
1701527120.852,19.609,19.609,-19.609,0.0026000000000000003,-0.0018000000000000002,-0.0012000000000000001,0.0,-0.044,-0.106
1701527120.892,19.609,19.609,-19.609,0.0022,-0.0026000000000000003,0.014400000000000001,-0.004,-0.044,-0.106
1701527120.932,19.609,19.609,-19.609,0.001,-0.0004,0.0058000000000000005,-0.003,-0.034,-0.111
1701527120.972,19.609,19.609,-19.609,0.004200000000000001,-0.0023,0.0034000000000000002,-0.002,-0.032,-0.107
1701527121.0119998,19.609,19.609,-19.609,0.0025,-0.0009000000000000001,0.0021000000000000003,-0.003,-0.027,-0.10400000000000001
1701527121.052,19.609,19.609,-19.609,0.0018000000000000002,-0.0011,0.0021000000000000003,0.001,-0.039,-0.10400000000000001
1701527121.092,19.609,19.609,-19.609,-0.0011,-0.0007,0.007500000000000001,0.002,-0.048,-0.111
1701527121.132,19.609,19.609,-19.609,0.0025,-0.0009000000000000001,0.0043,-0.013000000000000001,-0.058,-0.12
1701527121.172,19.609,19.609,-19.609,0.0014,0.0,0.0053,0.003,-0.056,-0.108
1701527121.212,19.609,19.609,-19.609,0.0002,-0.0017000000000000001,0.0145,-0.002,-0.052000000000000005,-0.112
1701527121.2519999,19.609,19.609,-19.609,0.0029000000000000002,-0.0009000000000000001,0.0199,-0.001,-0.046,-0.109
1701527121.292,19.609,19.609,-19.609,0.0022,0.0,0.0089,-0.004,-0.039,-0.10300000000000001
1701527121.332,19.609,19.609,-19.609,0.001,-0.0015,0.003,-0.004,-0.034,-0.106
1701527121.372,19.609,19.609,-19.609,0.0032,0.00030000000000000003,0.0128,-0.001,-0.041,-0.108
1701527121.412,19.609,19.609,-19.609,0.0032,0.0001,-0.0036000000000000003,0.0,-0.046,-0.10300000000000001
1701527121.452,19.609,19.609,-19.609,0.0004,-0.0014,0.004200000000000001,0.002,-0.041,-0.098
1701527121.4919999,19.609,19.609,-19.609,0.0031000000000000003,-0.0009000000000000001,0.0195,-0.001,-0.041,-0.10400000000000001
1701527121.532,19.609,19.609,-19.609,0.0019,-0.0004,-0.0048000000000000004,-0.008,-0.038,-0.109
1701527121.572,19.609,19.609,-19.609,0.006900000000000001,0.0016,-0.0077,-0.005,-0.042,-0.108
1701527121.612,19.609,19.609,-19.609,0.0028,-0.0027,0.0092,-0.008,-0.043000000000000003,-0.105
1701527121.652,19.609,19.609,-19.609,0.0043,-0.0017000000000000001,0.005,-0.004,-0.044,-0.111
1701527121.692,19.609,19.609,-19.609,0.0007,-0.0015,0.004,0.007,-0.05,-0.111
1701527121.7319999,19.609,19.609,-19.609,0.0021000000000000003,-0.0014,0.0053,-0.012,-0.051000000000000004,-0.108
1701527121.772,19.609,19.609,-19.609,0.0043,0.0007,0.0036000000000000003,0.003,-0.046,-0.113
1701527121.812,19.609,19.609,-19.609,0.004200000000000001,0.0,0.0053,-0.001,-0.042,-0.107
1701527121.852,19.609,19.609,-19.609,0.0008,-0.0004,-0.010400000000000001,-0.004,-0.038,-0.105
1701527121.892,19.609,19.609,-19.609,0.0025,0.001,0.015600000000000001,0.006,-0.037,-0.111
1701527121.932,19.609,19.609,-19.609,0.0046,-0.0012000000000000001,0.0046,-0.001,-0.047,-0.106
1701527121.972,19.609,19.609,-19.609,0.0029000000000000002,-0.0025,-0.0041,0.007,-0.051000000000000004,-0.109
1701527122.012,19.609,19.609,-19.609,0.0036000000000000003,-0.0014,0.012700000000000001,-0.015,-0.046,-0.098
1701527122.052,19.609,19.609,-19.609,0.0026000000000000003,0.0002,-0.0037,0.001,-0.05,-0.108
1701527122.092,19.609,19.609,-19.609,0.0007,0.0,0.0269,0.001,-0.046,-0.109
1701527122.132,19.609,19.609,-19.609,0.0007,-0.0002,0.0066,-0.003,-0.044,-0.107
1701527122.172,19.609,19.609,-19.609,0.0023,0.0006000000000000001,0.003,-0.001,-0.052000000000000005,-0.108
1701527122.212,19.609,19.609,-19.609,0.0009000000000000001,-0.0011,0.006200000000000001,0.0,-0.056,-0.10200000000000001
1701527122.252,19.609,19.609,-19.609,0.0031000000000000003,-0.0001,0.0017000000000000001,0.0,-0.062,-0.108
1701527122.292,19.609,19.609,-19.609,0.0014,-0.0002,0.0095,-0.003,-0.076,-0.108
1701527122.332,19.609,19.609,-19.609,0.0028,-0.0017000000000000001,0.0079,0.0,-0.053,-0.116
1701527122.372,19.609,19.609,-19.609,0.005,-0.0009000000000000001,0.00030000000000000003,0.015,-0.054,-0.113
1701527122.412,19.609,19.609,-19.609,0.0008,0.0004,0.015000000000000001,-0.004,-0.047,-0.105
1701527122.452,19.609,19.609,-19.609,0.0035,-0.0027,-0.0043,0.006,-0.052000000000000005,-0.101
1701527122.492,19.609,19.609,-19.609,-0.0001,-0.0004,0.0067,0.005,-0.055,-0.10300000000000001
1701527122.532,19.609,19.609,-19.609,-0.001,-0.003,0.0028,0.002,-0.05,-0.112
1701527122.572,19.609,19.609,-19.609,0.0016,-0.0012000000000000001,0.0068000000000000005,0.004,-0.049,-0.112
1701527122.612,19.609,19.609,-19.609,0.0023,-0.0014,0.013000000000000001,0.002,-0.053,-0.111
1701527122.652,19.609,19.609,-19.609,0.001,-0.002,-0.0082,0.0,-0.058,-0.105
1701527122.692,19.609,19.609,-19.609,0.0043,0.0004,0.0106,0.004,-0.058,-0.108
1701527122.732,19.609,19.609,-19.609,0.0036000000000000003,-0.0014,0.0071,0.005,-0.052000000000000005,-0.114
1701527122.772,19.609,19.609,-19.609,0.0031000000000000003,-0.0016,0.002,0.007,-0.051000000000000004,-0.108
1701527122.812,19.609,19.609,-19.609,0.0009000000000000001,-0.0019,-0.0039000000000000003,-0.007,-0.05,-0.105
1701527122.852,19.609,19.609,-19.609,0.0032,-0.003,0.008700000000000001,-0.002,-0.048,-0.10400000000000001
1701527122.892,19.609,19.609,-19.609,0.0046,0.0007,0.006,-0.004,-0.042,-0.10300000000000001
1701527122.932,19.609,19.609,-19.609,0.0031000000000000003,-0.002,0.0082,-0.004,-0.038,-0.107
1701527122.972,19.609,19.609,-19.609,0.0012000000000000001,-0.0001,0.0043,0.003,-0.052000000000000005,-0.10400000000000001
1701527123.0119998,19.609,19.609,-19.609,0.0026000000000000003,-0.0018000000000000002,0.006,-0.001,-0.051000000000000004,-0.105
1701527123.052,19.609,19.609,-19.609,0.00030000000000000003,0.0012000000000000001,0.0082,0.003,-0.054,-0.10400000000000001
1701527123.092,19.609,19.609,-19.609,0.0015,-0.0012000000000000001,0.006,-0.006,-0.053,-0.11
1701527123.132,19.609,19.609,-19.609,-0.0001,-0.0007,0.0021000000000000003,0.001,-0.051000000000000004,-0.107
1701527123.172,19.609,19.609,-19.609,0.0021000000000000003,-0.0038,0.0079,-0.002,-0.047,-0.10400000000000001
1701527123.212,19.609,19.609,-19.609,0.0018000000000000002,-0.0007,-0.0017000000000000001,-0.002,-0.048,-0.105
1701527123.2519999,19.609,19.609,-19.609,0.0047,-0.0009000000000000001,0.010100000000000001,0.001,-0.053,-0.11
1701527123.292,19.609,19.609,-19.609,0.002,-0.0023,0.0145,0.005,-0.063,-0.111
1701527123.332,19.609,19.609,-19.609,0.002,-0.0026000000000000003,-0.0111,0.005,-0.064,-0.108
1701527123.372,19.609,19.609,-19.609,0.0006000000000000001,0.0007,0.007,0.003,-0.064,-0.113
1701527123.412,19.609,19.609,-19.609,0.0025,-0.0019,0.0056,0.003,-0.061,-0.105
1701527123.452,19.609,19.609,-19.609,0.0031000000000000003,-0.0012000000000000001,-0.0038,0.005,-0.057,-0.113
1701527123.4919999,19.609,19.609,-19.609,0.0028,-0.002,0.010700000000000001,0.005,-0.051000000000000004,-0.111
1701527123.532,19.609,19.609,-19.609,0.0027,-0.0004,0.006,0.006,-0.05,-0.10300000000000001
1701527123.572,19.609,19.609,-19.609,0.0018000000000000002,-0.0005,0.008400000000000001,-0.002,-0.042,-0.105
1701527123.612,19.609,19.609,-19.609,0.0009000000000000001,0.0004,-0.0055000000000000005,-0.004,-0.046,-0.107
1701527123.652,19.609,19.609,-19.609,0.004,0.00030000000000000003,0.0102,-0.001,-0.052000000000000005,-0.10200000000000001
1701527123.692,19.609,19.609,-19.609,0.0001,-0.0025,0.006500000000000001,-0.003,-0.035,-0.10400000000000001
1701527123.7319999,19.609,19.609,-19.609,0.0037,0.0007,0.005,0.0,-0.05,-0.111
1701527123.772,19.609,19.609,-19.609,0.0036000000000000003,-0.0001,0.0046,-0.007,-0.04,-0.101
1701527123.812,19.609,19.609,-19.609,0.0022,0.0007,-0.0036000000000000003,-0.005,-0.048,-0.106
1701527123.852,19.609,19.609,-19.609,0.0051,-0.0035,0.006200000000000001,-0.001,-0.048,-0.106
1701527123.892,19.609,19.609,-19.609,0.0037,0.0008,0.001,-0.016,-0.041,-0.109
1701527123.932,19.609,19.609,-19.609,0.0023,-0.0007,0.0064,-0.006,-0.045,-0.107
1701527123.972,19.609,19.609,-19.609,0.002,-0.0007,0.0028,0.005,-0.047,-0.105
1701527124.012,19.609,19.609,-19.609,0.0031000000000000003,-0.0012000000000000001,0.007200000000000001,0.014,-0.067,-0.116
1701527124.052,19.609,19.609,-19.609,0.0036000000000000003,-0.0013000000000000002,0.0054,0.001,-0.053,-0.107
1701527124.092,19.609,19.609,-19.609,0.005,-0.0021000000000000003,0.0131,-0.004,-0.052000000000000005,-0.10400000000000001
1701527124.132,19.609,19.609,-19.609,0.002,-0.0032,-0.0001,-0.005,-0.048,-0.106
1701527124.172,19.609,19.609,-19.609,0.0051,0.001,0.0126,-0.003,-0.049,-0.105
1701527124.212,19.609,19.609,-19.609,0.0044,-0.0021000000000000003,0.0063,0.021,-0.043000000000000003,-0.105
1701527124.252,19.609,19.609,-19.609,0.0035,-0.0012000000000000001,0.0023,-0.001,-0.05,-0.10400000000000001
1701527124.292,19.609,19.609,-19.609,0.0025,-0.0029000000000000002,0.0098,0.001,-0.061,-0.106
1701527124.332,19.609,19.609,-19.609,0.0038,-0.0025,0.0018000000000000002,0.002,-0.048,-0.108
1701527124.372,19.609,19.609,-19.609,0.0015,-0.0004,0.0086,0.0,-0.047,-0.109
1701527124.412,19.609,19.609,-19.609,0.0032,-0.0013000000000000002,0.0083,-0.003,-0.042,-0.105
1701527124.452,19.609,19.609,-19.609,0.0046,0.00030000000000000003,0.0046,0.0,-0.047,-0.099
1701527124.492,19.609,19.609,-19.609,0.0032,-0.0014,0.0115,0.002,-0.047,-0.107
1701527124.532,19.609,19.609,-19.609,0.0007,-0.0009000000000000001,0.0001,0.001,-0.036000000000000004,-0.107
1701527124.572,19.609,19.609,-19.609,0.0036000000000000003,-0.0023,-0.0014,0.001,-0.048,-0.106
1701527124.612,19.609,19.609,-19.609,0.0029000000000000002,-0.0012000000000000001,0.0059,0.008,-0.049,-0.111
1701527124.652,19.609,19.609,-19.609,0.0026000000000000003,0.0001,0.007500000000000001,0.003,-0.041,-0.109
1701527124.692,19.609,19.609,-19.609,0.004200000000000001,0.0004,0.006500000000000001,0.0,-0.041,-0.099
1701527124.732,19.609,19.609,-19.609,0.001,0.0,-0.0029000000000000002,-0.01,-0.038,-0.105
1701527124.772,19.609,19.609,-19.609,0.004,-0.0014,0.0219,-0.012,-0.035,-0.106
1701527124.812,19.609,19.609,-19.609,0.004200000000000001,-0.0018000000000000002,0.0028,-0.003,-0.038,-0.105
1701527124.852,19.609,19.609,-19.609,0.0034000000000000002,-0.0026000000000000003,0.0134,0.0,-0.04,-0.107
1701527124.892,19.609,19.609,-19.609,0.0014,0.0004,0.0015,0.0,-0.048,-0.11
1701527124.932,19.609,19.609,-19.609,0.003,0.0002,0.0033,0.001,-0.05,-0.10300000000000001
1701527124.972,19.609,19.609,-19.609,0.0021000000000000003,-0.0007,0.0023,-0.001,-0.038,-0.10400000000000001
1701527125.0119998,19.609,19.609,-19.609,0.0037,0.001,0.003,-0.005,-0.038,-0.105
1701527125.052,19.609,19.609,-19.609,0.0033,-0.001,0.0029000000000000002,-0.004,-0.036000000000000004,-0.10400000000000001
1701527125.092,19.609,19.609,-19.609,0.0058000000000000005,-0.0009000000000000001,-0.0002,-0.013000000000000001,-0.016,-0.105
1701527125.132,19.609,19.609,-19.609,0.0033,-0.001,0.012,-0.008,-0.021,-0.105
1701527125.172,19.609,19.609,-19.609,0.0038,0.0017000000000000001,-0.019,-0.003,-0.037,-0.10400000000000001
1701527125.212,19.609,19.609,-19.609,0.0029000000000000002,-0.002,-0.011000000000000001,-0.005,-0.037,-0.11
1701527125.2519999,19.609,19.609,-19.609,0.0063,0.0032,0.0031000000000000003,-0.002,-0.031,-0.10400000000000001
1701527125.292,19.609,19.609,-19.609,0.0036000000000000003,0.0,-0.004,0.0,-0.044,-0.107
1701527125.332,19.609,19.609,-19.609,0.0026000000000000003,0.0017000000000000001,0.009000000000000001,-0.003,-0.038,-0.114
1701527125.372,19.609,19.609,-19.609,0.0034000000000000002,-0.0008,0.0085,-0.003,-0.034,-0.11
1701527125.412,19.609,19.609,-19.609,0.0047,-0.00030000000000000003,0.0021000000000000003,-0.003,-0.028,-0.10200000000000001
1701527125.452,19.609,19.609,-19.609,0.0012000000000000001,-0.0019,0.0102,-0.004,-0.03,-0.11
1701527125.4919999,19.609,19.609,-19.609,0.0028,-0.0008,0.0001,-0.003,-0.031,-0.107
1701527125.532,19.609,19.609,-19.609,0.0011,-0.001,0.006200000000000001,-0.002,-0.037,-0.114
1701527125.572,19.609,19.609,-19.609,0.0045000000000000005,-0.0014,0.0018000000000000002,0.001,-0.032,-0.113
1701527125.612,19.609,19.609,-19.609,0.0029000000000000002,0.0004,-0.0039000000000000003,-0.003,-0.027,-0.098
1701527125.652,19.609,19.609,-19.609,0.0034000000000000002,0.001,0.0076,-0.005,-0.041,-0.105
1701527125.692,19.609,19.609,-19.609,0.0028,-0.0013000000000000002,-0.0018000000000000002,-0.005,-0.031,-0.101
1701527125.7319999,19.609,19.609,-19.609,0.0015,0.0001,0.0094,-0.001,-0.022,-0.109
1701527125.772,19.609,19.609,-19.609,0.0039000000000000003,0.0005,0.0033,-0.003,0.007,-0.105
1701527125.812,19.609,19.609,-19.609,0.0029000000000000002,-0.0023,0.0102,-0.015,-0.028,-0.105
1701527125.852,19.609,19.609,-19.609,0.0043,-0.001,-0.0032,-0.001,-0.039,-0.111
1701527125.892,19.609,19.609,-19.609,0.0019,0.0006000000000000001,0.0064,0.001,-0.037,-0.105
1701527125.932,19.609,19.609,-19.609,0.0047,-0.0001,0.0043,-0.003,-0.023,-0.108
1701527125.972,19.609,19.609,-19.609,0.004200000000000001,-0.0012000000000000001,0.0007,0.0,-0.012,-0.10300000000000001
1701527126.012,19.609,19.609,-19.609,0.0014,-0.0012000000000000001,0.0017000000000000001,-0.005,-0.038,-0.107
1701527126.052,19.609,19.609,-19.609,0.0018000000000000002,0.0001,0.0079,-0.002,-0.028,-0.107
1701527126.092,19.609,19.609,-19.609,0.002,0.0017000000000000001,0.0001,-0.007,-0.029,-0.10300000000000001
1701527126.132,19.609,19.609,-19.609,0.0038,-0.001,0.0198,-0.004,-0.03,-0.106
1701527126.172,19.609,19.609,-19.609,0.0012000000000000001,-0.001,0.00030000000000000003,0.001,-0.034,-0.10200000000000001
1701527126.212,19.609,19.609,-19.609,0.0033,-0.0014,0.0118,-0.003,-0.027,-0.10400000000000001
1701527126.252,19.609,19.609,-19.609,0.004,-0.0015,0.0061,-0.002,-0.041,-0.109
1701527126.292,19.609,19.609,-19.609,0.0036000000000000003,-0.0023,-0.004200000000000001,-0.006,-0.029,-0.109
1701527126.332,19.609,19.609,-19.609,0.0032,-0.00030000000000000003,0.0018000000000000002,-0.005,-0.031,-0.10300000000000001
1701527126.372,19.609,19.609,-19.609,0.0025,-0.0007,0.010100000000000001,0.0,-0.032,-0.107
1701527126.412,19.609,19.609,-19.609,0.0009000000000000001,-0.0015,0.008400000000000001,-0.005,-0.029,-0.106
1701527126.452,19.609,19.609,-19.609,0.0028,-0.0018000000000000002,-0.0045000000000000005,-0.007,-0.028,-0.105
1701527126.492,19.609,19.609,-19.609,0.0039000000000000003,-0.0006000000000000001,0.0039000000000000003,-0.003,-0.033,-0.107
1701527126.532,19.609,19.609,-19.609,0.0038,-0.0012000000000000001,0.0023,-0.002,-0.036000000000000004,-0.108
1701527126.572,19.609,19.609,-19.609,0.0037,0.0004,0.0028,-0.003,-0.034,-0.11
1701527126.612,19.609,19.609,-19.609,0.0032,-0.002,-0.0028,-0.004,-0.041,-0.111
1701527126.652,19.609,19.609,-19.609,0.0051,-0.0012000000000000001,0.0137,0.002,-0.036000000000000004,-0.10400000000000001
1701527126.692,19.609,19.609,-19.609,0.0025,-0.002,0.010100000000000001,-0.003,-0.044,-0.108
1701527126.732,19.609,19.609,-19.609,0.0008,0.0004,-0.0024000000000000002,-0.004,-0.042,-0.106
1701527126.772,19.609,19.609,-19.609,0.0031000000000000003,0.0,0.0005,-0.005,-0.035,-0.108
1701527126.812,19.609,19.609,-19.609,0.0024000000000000002,-0.0012000000000000001,0.0145,0.0,-0.025,-0.107
1701527126.852,19.609,19.609,-19.609,0.0018000000000000002,-0.0008,0.0083,-0.005,-0.03,-0.10300000000000001
1701527126.892,19.609,19.609,-19.609,0.001,-0.0018000000000000002,-0.014700000000000001,0.0,-0.046,-0.107
1701527126.932,19.609,19.609,-19.609,0.0026000000000000003,-0.0007,-0.01,-0.004,-0.048,-0.112
1701527126.972,19.609,19.609,-19.609,0.002,-0.002,-0.015000000000000001,-0.003,-0.031,-0.106
1701527127.0119998,19.609,19.609,-19.609,0.004200000000000001,-0.0016,0.010700000000000001,-0.004,-0.035,-0.106
1701527127.052,19.609,19.609,-19.609,0.0016,-0.0007,0.0013000000000000002,-0.005,-0.036000000000000004,-0.107
1701527127.092,19.609,19.609,-19.609,0.0025,0.0,0.0064,-0.001,-0.049,-0.10300000000000001
1701527127.132,19.609,19.609,-19.609,0.0039000000000000003,0.0006000000000000001,0.007200000000000001,-0.009000000000000001,-0.035,-0.097
1701527127.172,19.609,19.609,-19.609,0.003,0.0018000000000000002,0.0008,-0.006,-0.039,-0.107
1701527127.212,19.609,19.609,-19.609,0.0022,-0.0023,0.0051,-0.005,-0.039,-0.113
1701527127.2519999,19.609,19.609,-19.609,0.0026000000000000003,0.0,0.003,-0.007,-0.048,-0.11
1701527127.292,19.609,19.609,-19.609,0.0014,-0.0014,-0.0162,-0.007,-0.047,-0.109
1701527127.332,19.609,19.609,-19.609,0.001,-0.0001,0.0175,-0.004,-0.033,-0.108
1701527127.372,19.609,19.609,-19.609,0.0015,-0.0014,0.0068000000000000005,-0.005,-0.042,-0.111
1701527127.412,19.609,19.609,-19.609,0.0031000000000000003,-0.0023,0.014,-0.002,-0.043000000000000003,-0.108
1701527127.452,19.609,19.609,-19.609,0.00030000000000000003,-0.0015,0.0024000000000000002,0.0,-0.043000000000000003,-0.106
1701527127.4919999,19.609,19.609,-19.609,0.0057,-0.002,0.0057,0.0,-0.041,-0.10400000000000001
1701527127.532,19.609,19.609,-19.609,0.0023,-0.0001,-0.0009000000000000001,0.0,-0.048,-0.10400000000000001
1701527127.572,19.609,19.609,-19.609,0.003,0.0017000000000000001,0.0091,0.005,-0.051000000000000004,-0.108
1701527127.612,19.609,19.609,-19.609,0.0015,-0.0015,0.0,-0.001,-0.047,-0.101
1701527127.652,19.609,19.609,-19.609,0.0034000000000000002,-0.001,0.0021000000000000003,-0.004,-0.039,-0.107
1701527127.692,19.609,19.609,-19.609,0.0031000000000000003,-0.0022,-0.0014,-0.007,-0.04,-0.108
1701527127.7319999,19.609,19.609,-19.609,0.0009000000000000001,-0.0011,0.0126,-0.009000000000000001,-0.083,-0.108
1701527127.772,19.609,19.609,-19.609,0.003,-0.0022,0.0081,-0.016,-0.047,-0.114
1701527127.812,19.609,19.609,-19.609,0.0013000000000000002,0.0,0.0018000000000000002,-0.004,-0.03,-0.101
1701527127.852,19.609,19.609,-19.609,0.0023,-0.0013000000000000002,0.0027,0.0,-0.037,-0.105
1701527127.892,19.609,19.609,-19.609,0.001,-0.0012000000000000001,0.0058000000000000005,0.0,-0.038,-0.108
1701527127.932,19.609,19.609,-19.609,0.0007,0.0005,-0.008700000000000001,0.001,-0.033,-0.10200000000000001
1701527127.972,19.609,19.609,-19.609,0.0023,-0.0009000000000000001,0.007500000000000001,-0.022,-0.027,-0.112
1701527128.012,19.609,19.609,-19.609,0.0036000000000000003,-0.0006000000000000001,-0.0017000000000000001,0.002,-0.034,-0.11
1701527128.052,19.609,19.609,-19.609,-0.0006000000000000001,-0.001,0.0114,0.008,-0.059000000000000004,-0.113
1701527128.092,19.609,19.609,-19.609,0.0007,-0.0029000000000000002,0.0118,0.007,-0.077,-0.122
1701527128.132,19.609,19.609,-19.609,0.0024000000000000002,0.0006000000000000001,-0.0039000000000000003,0.015,-0.073,-0.12
1701527128.172,19.609,19.609,-19.609,0.0014,-0.0022,0.0102,0.008,-0.064,-0.114
1701527128.212,19.609,19.609,-19.609,0.0031000000000000003,-0.0021000000000000003,0.0061,0.001,-0.037,-0.10400000000000001
1701527128.252,19.609,19.609,-19.609,0.0012000000000000001,0.0021000000000000003,0.0111,-0.003,-0.035,-0.097
1701527128.292,19.609,19.609,-19.609,0.0034000000000000002,-0.0007,-0.0025,-0.01,-0.016,-0.10400000000000001
1701527128.332,19.609,19.609,-19.609,0.0045000000000000005,-0.0016,0.0006000000000000001,-0.014,-0.017,-0.096
1701527128.372,19.609,19.609,-19.609,0.0016,-0.0024000000000000002,0.007,-0.014,-0.026000000000000002,-0.101
1701527128.412,19.609,19.609,-19.609,0.0045000000000000005,-0.0009000000000000001,0.007500000000000001,-0.007,-0.053,-0.108
1701527128.452,19.609,19.609,-19.609,0.0007,-0.0004,0.0029000000000000002,0.004,-0.051000000000000004,-0.11
1701527128.492,19.609,19.609,-19.609,0.0037,-0.0011,-0.001,0.006,-0.053,-0.111
1701527128.532,19.609,19.609,-19.609,0.002,-0.0031000000000000003,0.0032,0.002,-0.051000000000000004,-0.116
1701527128.572,19.609,19.609,-19.609,0.0012000000000000001,-0.0012000000000000001,0.0057,0.009000000000000001,-0.046,-0.109
1701527128.612,19.609,19.609,-19.609,0.0044,-0.0015,0.0056,0.0,-0.048,-0.105
1701527128.652,19.609,19.609,-19.609,0.0046,-0.001,0.0041,0.007,-0.046,-0.107
1701527128.692,19.609,19.609,-19.609,0.0047,-0.0017000000000000001,0.0051,-0.003,-0.045,-0.10300000000000001
1701527128.732,19.609,19.609,-19.609,0.004,-0.0014,0.0212,-0.005,-0.042,-0.11
1701527128.772,19.609,19.609,-19.609,0.0041,0.001,0.0076,-0.007,-0.038,-0.108
1701527128.812,19.609,19.609,-19.609,0.0001,-0.00030000000000000003,0.0205,0.001,-0.045,-0.108
1701527128.852,19.609,19.609,-19.609,0.0037,-0.0028,0.0054,-0.001,-0.043000000000000003,-0.108
1701527128.892,19.609,19.609,-19.609,0.0045000000000000005,0.0001,0.0037,0.001,-0.049,-0.107
1701527128.932,19.609,19.609,-19.609,0.0028,-0.002,0.0023,0.0,-0.046,-0.109
1701527128.972,19.609,19.609,-19.609,0.0025,-0.0009000000000000001,0.002,-0.004,-0.045,-0.109
1701527129.0119998,19.609,19.609,-19.609,0.0009000000000000001,-0.001,0.0051,0.001,-0.059000000000000004,-0.111
1701527129.052,19.609,19.609,-19.609,0.0025,-0.0001,0.0067,-0.01,-0.048,-0.11
1701527129.092,19.609,19.609,-19.609,0.0048000000000000004,-0.00030000000000000003,0.0019,0.0,-0.038,-0.106
1701527129.132,19.609,19.609,-19.609,0.0025,-0.0017000000000000001,-0.0009000000000000001,0.0,-0.045,-0.106
1701527129.172,19.609,19.609,-19.609,0.0028,0.001,0.0106,0.007,-0.054,-0.115
1701527129.212,19.609,19.609,-19.609,0.0043,-0.0004,0.0039000000000000003,0.006,-0.057,-0.10300000000000001
1701527129.2519999,19.609,19.609,-19.609,0.0015,-0.0002,0.0023,0.002,-0.063,-0.10300000000000001
1701527129.292,19.609,19.609,-19.609,0.0026000000000000003,-0.001,0.0028,-0.006,-0.045,-0.113
1701527129.332,19.609,19.609,-19.609,-0.0031000000000000003,-0.0014,0.0097,-0.006,-0.035,-0.107
1701527129.372,19.609,19.609,-19.609,0.0038,-0.0029000000000000002,-0.0017000000000000001,-0.005,-0.049,-0.10400000000000001
1701527129.412,19.609,19.609,-19.609,-0.0004,-0.0015,0.0175,-0.003,-0.044,-0.108
1701527129.452,19.609,19.609,-19.609,0.0035,-0.0018000000000000002,0.004,-0.001,-0.049,-0.113
1701527129.4919999,19.609,19.609,-19.609,0.0021000000000000003,-0.0018000000000000002,-0.00030000000000000003,-0.001,-0.047,-0.108
1701527129.532,19.609,19.609,-19.609,0.001,0.0001,0.0061,0.004,-0.058,-0.105
1701527129.572,19.609,19.609,-19.609,0.0029000000000000002,-0.0004,0.005,-0.001,-0.055,-0.112
1701527129.612,19.609,19.609,-19.609,0.0017000000000000001,0.0006000000000000001,0.0,-0.001,-0.055,-0.109
1701527129.652,19.609,19.609,-19.609,0.0,-0.0006000000000000001,0.006500000000000001,0.0,-0.048,-0.1
1701527129.692,19.609,19.609,-19.609,0.0023,-0.0024000000000000002,0.0078000000000000005,-0.009000000000000001,-0.045,-0.10300000000000001
1701527129.7319999,19.609,19.609,-19.609,0.0024000000000000002,-0.0021000000000000003,0.0029000000000000002,-0.001,-0.044,-0.11
1701527129.772,19.609,19.609,-19.609,0.001,-0.0017000000000000001,0.0029000000000000002,0.003,-0.015,-0.11
1701527129.812,19.609,19.609,-19.609,0.002,-0.0029000000000000002,0.0076,-0.004,-0.045,-0.106
1701527129.852,19.609,19.609,-19.609,0.0021000000000000003,-0.0001,0.0079,0.0,-0.044,-0.111
1701527129.892,19.609,19.609,-19.609,0.0041,-0.0006000000000000001,0.0081,0.0,-0.05,-0.10200000000000001
1701527129.932,19.609,19.609,-19.609,0.0029000000000000002,0.0002,0.005,-0.002,-0.045,-0.108
1701527129.972,19.609,19.609,-19.609,0.0021000000000000003,0.0005,-0.0002,-0.001,-0.045,-0.109
1701527130.012,19.609,19.609,-19.609,0.0017000000000000001,-0.0032,-0.0006000000000000001,0.004,-0.054,-0.109
1701527130.052,19.609,19.609,-19.609,0.0011,-0.0018000000000000002,0.0056,-0.004,-0.042,-0.109
1701527130.092,19.609,19.609,-19.609,0.0031000000000000003,-0.00030000000000000003,0.0024000000000000002,-0.006,-0.051000000000000004,-0.106
1701527130.132,19.609,19.609,-19.609,0.0032,0.0,0.010400000000000001,0.0,-0.041,-0.108
1701527130.172,19.609,19.609,-19.609,0.0027,-0.0006000000000000001,0.0026000000000000003,-0.003,-0.037,-0.112
1701527130.212,19.609,19.609,-19.609,0.0029000000000000002,-0.0011,-0.003,0.006,-0.038,-0.112
1701527130.252,19.609,19.609,-19.609,0.0014,-0.0016,0.013900000000000001,0.006,-0.05,-0.106
1701527130.292,19.609,19.609,-19.609,0.002,0.0005,-0.00030000000000000003,0.0,-0.056,-0.109
1701527130.332,19.609,19.609,-19.609,0.0023,0.0001,0.0051,0.0,-0.048,-0.10400000000000001
1701527130.372,19.609,19.609,-19.609,0.00030000000000000003,-0.0028,0.0057,-0.005,-0.04,-0.098
1701527130.412,19.609,19.609,-19.609,0.0038,0.00030000000000000003,-0.0045000000000000005,-0.004,-0.046,-0.10200000000000001
1701527130.452,19.609,19.609,-19.609,0.0017000000000000001,-0.0015,0.0081,-0.005,-0.042,-0.10400000000000001
1701527130.492,19.609,19.609,-19.609,0.0001,-0.00030000000000000003,0.0037,-0.007,-0.045,-0.107
1701527130.532,19.609,19.609,-19.609,0.0028,-0.002,0.0205,-0.003,-0.048,-0.106
1701527130.572,19.609,19.609,-19.609,0.0028,-0.0025,-0.011600000000000001,0.0,-0.042,-0.109
1701527130.612,19.609,19.609,-19.609,0.0056,-0.0015,0.010100000000000001,-0.002,-0.042,-0.10400000000000001
1701527130.652,19.609,19.609,-19.609,0.0001,-0.0009000000000000001,-0.0043,-0.001,-0.05,-0.115
1701527130.692,19.609,19.609,-19.609,0.004200000000000001,-0.0021000000000000003,-0.0034000000000000002,0.002,-0.05,-0.105
1701527130.732,19.609,19.609,-19.609,0.0021000000000000003,0.0015,0.0122,-0.005,-0.041,-0.109
1701527130.772,19.609,19.609,-19.609,0.0037,-0.0004,-0.0025,0.0,-0.048,-0.112
1701527130.812,19.609,19.609,-19.609,0.0025,-0.0008,0.0071,-0.002,-0.049,-0.105
1701527130.852,19.609,19.609,-19.609,0.0009000000000000001,-0.0026000000000000003,0.0002,0.001,-0.042,-0.11
1701527130.892,19.609,19.609,-19.609,0.0018000000000000002,-0.0015,0.0064,0.006,-0.055,-0.107
1701527130.932,19.609,19.609,-19.609,0.0036000000000000003,-0.0004,0.0068000000000000005,0.0,-0.059000000000000004,-0.108
1701527130.972,19.609,19.609,-19.609,0.0054,-0.0015,0.0026000000000000003,0.001,-0.048,-0.112
1701527131.0119998,19.609,19.609,-19.609,0.0018000000000000002,-0.0023,0.0005,-0.003,-0.055,-0.111
1701527131.052,19.609,19.609,-19.609,0.0026000000000000003,0.0001,0.0054,-0.003,-0.031,-0.105
1701527131.092,19.609,19.609,-19.609,0.004,-0.001,0.0068000000000000005,-0.007,-0.036000000000000004,-0.107
1701527131.132,19.609,19.609,-19.609,0.0043,0.0021000000000000003,0.0016,-0.002,-0.046,-0.101
1701527131.172,19.609,19.609,-19.609,0.0028,-0.0023,-0.0086,0.008,-0.04,-0.10300000000000001
1701527131.212,19.609,19.609,-19.609,0.0006000000000000001,-0.0015,0.0027,0.0,-0.07200000000000001,-0.105
1701527131.2519999,19.609,19.609,-19.609,0.0059,-0.0007,0.0089,0.008,-0.043000000000000003,-0.11
1701527131.292,19.609,19.609,-19.609,0.0033,-0.002,-0.0006000000000000001,0.0,-0.056,-0.101
1701527131.332,19.609,19.609,-19.609,0.001,-0.0018000000000000002,0.0017000000000000001,0.003,-0.053,-0.098
1701527131.372,19.609,19.609,-19.609,0.0007,-0.0006000000000000001,0.0016,-0.005,-0.045,-0.105
1701527131.412,19.609,19.609,-19.609,0.0039000000000000003,-0.0009000000000000001,0.0086,-0.005,-0.041,-0.108
1701527131.452,19.609,19.609,-19.609,0.0059,-0.0019,0.0044,-0.007,-0.047,-0.113
1701527131.4919999,19.609,19.609,-19.609,0.0006000000000000001,0.0007,0.005200000000000001,0.0,-0.014,-0.107
1701527131.532,19.609,19.609,-19.609,0.0016,-0.0029000000000000002,0.006500000000000001,0.002,-0.054,-0.105
1701527131.572,19.609,19.609,-19.609,0.004,0.0011,0.0067,0.001,-0.059000000000000004,-0.107
1701527131.612,19.609,19.609,-19.609,0.005,-0.0009000000000000001,0.0015,0.004,-0.061,-0.107
1701527131.652,19.609,19.609,-19.609,0.002,-0.0023,0.0092,0.028,-0.058,-0.113
1701527131.692,19.609,19.609,-19.609,0.0015,0.0006000000000000001,-0.0054,0.0,-0.052000000000000005,-0.108
1701527131.7319999,19.609,19.609,-19.609,0.0053,0.0001,-0.0023,-0.004,-0.048,-0.10200000000000001
1701527131.772,19.609,19.609,-19.609,0.0001,-0.0036000000000000003,0.0097,-0.005,-0.046,-0.105
1701527131.812,19.609,19.609,-19.609,0.006,0.0001,0.0059,-0.004,-0.03,-0.11
1701527131.852,19.609,19.609,-19.609,0.0031000000000000003,-0.0033,0.0054,0.001,-0.045,-0.108
1701527131.892,19.609,19.609,-19.609,0.0025,-0.002,0.0059,0.0,-0.046,-0.107
1701527131.932,19.609,19.609,-19.609,0.004,0.0014,0.0021000000000000003,-0.002,-0.051000000000000004,-0.108
1701527131.972,19.609,19.609,-19.609,0.0047,0.0002,-0.0001,0.0,-0.043000000000000003,-0.10200000000000001
1701527132.012,19.609,19.609,-19.609,0.005,-0.002,0.0154,0.0,-0.039,-0.111
1701527132.052,19.609,19.609,-19.609,0.005200000000000001,0.0009000000000000001,-0.0007,-0.01,-0.03,-0.105
1701527132.092,19.609,19.609,-19.609,0.0021000000000000003,0.0008,0.006500000000000001,-0.007,-0.036000000000000004,-0.095
1701527132.132,19.609,19.609,-19.609,0.0056,-0.0022,0.0,-0.006,-0.047,-0.105
1701527132.172,19.609,19.609,-19.609,0.0041,-0.002,0.0166,0.0,-0.033,-0.113
1701527132.212,19.609,19.609,-19.609,0.004,-0.0004,0.0046,-0.003,-0.039,-0.108
1701527132.252,19.609,19.609,-19.609,0.0027,-0.0011,0.0073,-0.002,-0.045,-0.107
1701527132.292,19.609,19.609,-19.609,0.0026000000000000003,-0.0012000000000000001,0.0026000000000000003,-0.001,-0.055,-0.112
1701527132.332,19.609,19.609,-19.609,-0.0012000000000000001,-0.0017000000000000001,0.008400000000000001,-0.003,-0.036000000000000004,-0.107
1701527132.372,19.609,19.609,-19.609,0.0027,0.0017000000000000001,-0.0057,-0.005,-0.035,-0.11
1701527132.412,19.609,19.609,-19.609,0.0029000000000000002,-0.001,0.0067,-0.005,-0.037,-0.10200000000000001
1701527132.452,19.609,19.609,-19.609,0.004200000000000001,-0.0012000000000000001,0.0014,-0.003,-0.038,-0.111
1701527132.492,19.609,19.609,-19.609,0.0025,-0.0025,0.0001,-0.003,-0.043000000000000003,-0.109
1701527132.532,19.609,19.609,-19.609,0.0045000000000000005,-0.0006000000000000001,0.0053,-0.005,-0.044,-0.107
1701527132.572,19.609,19.609,-19.609,0.0008,-0.0005,0.0051,0.0,-0.05,-0.11
1701527132.612,19.609,19.609,-19.609,0.0033,-0.0012000000000000001,-0.0014,0.0,-0.062,-0.108
1701527132.652,19.609,19.609,-19.609,0.0027,0.0,-0.0007,-0.01,-0.032,-0.109
1701527132.692,19.609,19.609,-19.609,0.0031000000000000003,-0.002,0.006500000000000001,-0.016,-0.028,-0.108
1701527132.732,19.609,19.609,-19.609,0.0033,0.0007,0.013300000000000001,-0.005,-0.027,-0.10200000000000001
1701527132.772,19.609,19.609,-19.609,0.0046,0.0004,0.0034000000000000002,-0.003,-0.021,-0.105
1701527132.812,19.609,19.609,-19.609,0.0037,-0.0046,-0.0045000000000000005,-0.009000000000000001,-0.023,-0.099
1701527132.852,19.609,19.609,-19.609,0.0022,-0.0018000000000000002,0.007,-0.008,-0.023,-0.10400000000000001
1701527132.892,19.609,19.609,-19.609,0.0037,-0.0004,0.0076,-0.004,-0.026000000000000002,-0.107
1701527132.932,19.609,19.609,-19.609,0.0018000000000000002,0.001,-0.0012000000000000001,-0.005,-0.03,-0.114
1701527132.972,19.609,19.609,-19.609,0.0025,0.0001,0.0028,-0.008,-0.028,-0.107
1701527133.0119998,19.609,19.609,-19.609,0.0059,0.0002,-0.0004,-0.004,-0.001,-0.109
1701527133.052,19.609,19.609,-19.609,0.0036000000000000003,-0.003,0.0125,-0.01,-0.024,-0.10400000000000001
1701527133.092,19.609,19.609,-19.609,0.0029000000000000002,0.0012000000000000001,-0.0024000000000000002,-0.013000000000000001,-0.033,-0.106
1701527133.132,19.609,19.609,-19.609,0.0026000000000000003,-0.0023,0.007500000000000001,-0.007,-0.031,-0.1
1701527133.172,19.609,19.609,-19.609,0.002,-0.0014,0.0067,-0.001,-0.025,-0.10300000000000001
1701527133.212,19.609,19.609,-19.609,0.0021000000000000003,-0.0023,-0.0022,-0.001,-0.017,-0.10400000000000001
1701527133.2519999,19.609,19.609,-19.609,0.0032,-0.0021000000000000003,-0.0071,0.0,-0.022,-0.107
1701527133.292,19.609,19.609,-19.609,0.0041,-0.0016,0.0079,0.0,-0.034,-0.107
1701527133.332,19.609,19.609,-19.609,0.0053,-0.0011,0.0063,-0.003,-0.031,-0.10400000000000001
1701527133.372,19.609,19.609,-19.609,0.0035,0.0006000000000000001,-0.0032,-0.009000000000000001,-0.025,-0.10300000000000001
1701527133.412,19.609,19.609,-19.609,0.0026000000000000003,-0.0015,0.0047,-0.007,-0.026000000000000002,-0.108
1701527133.452,19.609,19.609,-19.609,0.0014,0.0007,-0.0009000000000000001,-0.003,-0.022,-0.105
1701527133.4919999,19.609,19.609,-19.609,0.0039000000000000003,-0.0001,0.0058000000000000005,-0.005,-0.026000000000000002,-0.10300000000000001
1701527133.532,19.609,19.609,-19.609,0.0032,-0.0005,0.0079,-0.001,-0.033,-0.106
1701527133.572,19.609,19.609,-19.609,0.0047,-0.0017000000000000001,-0.0012000000000000001,-0.005,-0.039,-0.112
1701527133.612,19.609,19.609,-19.609,0.0043,-0.0018000000000000002,0.0074,-0.005,-0.039,-0.10400000000000001
1701527133.652,19.609,19.609,-19.609,0.0013000000000000002,-0.0004,-0.0067,-0.009000000000000001,-0.022,-0.107
1701527133.692,19.609,19.609,-19.609,0.0025,-0.0005,0.0123,-0.013000000000000001,-0.031,-0.105
1701527133.7319999,19.609,19.609,-19.609,0.0019,-0.0023,-0.0014,-0.005,-0.03,-0.10400000000000001
1701527133.772,19.609,19.609,-19.609,0.0035,-0.0009000000000000001,0.006500000000000001,-0.002,-0.034,-0.11
1701527133.812,19.609,19.609,-19.609,0.0017000000000000001,-0.0022,0.0051,-0.002,-0.037,-0.105
1701527133.852,19.609,19.609,-19.609,0.0026000000000000003,-0.0015,0.0151,0.0,-0.033,-0.10300000000000001
1701527133.892,19.609,19.609,-19.609,0.0025,-0.0034000000000000002,0.0028,0.0,-0.034,-0.10300000000000001
1701527133.932,19.609,19.609,-19.609,0.0045000000000000005,-0.0001,0.0054,-0.007,-0.031,-0.107
1701527133.972,19.609,19.609,-19.609,0.0001,-0.0029000000000000002,0.0011,-0.005,-0.038,-0.107
1701527134.012,19.609,19.609,-19.609,0.0012000000000000001,0.0,0.0045000000000000005,-0.004,-0.033,-0.107
1701527134.052,19.609,19.609,-19.609,0.0016,-0.0002,0.009000000000000001,-0.001,-0.038,-0.112
1701527134.092,19.609,19.609,-19.609,0.006,-0.0006000000000000001,0.0036000000000000003,-0.003,-0.032,-0.111
1701527134.132,19.609,19.609,-19.609,0.004,-0.0017000000000000001,0.0077,-0.001,-0.045,-0.111
1701527134.172,19.609,19.609,-19.609,0.0025,-0.0028,0.0064,-0.006,-0.041,-0.112
1701527134.212,19.609,19.609,-19.609,0.0019,-0.0017000000000000001,0.0027,0.001,-0.04,-0.109
1701527134.252,19.609,19.609,-19.609,0.0022,-0.001,0.0005,-0.007,-0.051000000000000004,-0.107
1701527134.292,19.609,19.609,-19.609,0.0027,-0.0018000000000000002,-0.0079,-0.006,-0.047,-0.111
1701527134.332,19.609,19.609,-19.609,0.0026000000000000003,-0.0004,0.0044,-0.006,-0.035,-0.10300000000000001
1701527134.372,19.609,19.609,-19.609,-0.0001,-0.0018000000000000002,0.0022,-0.001,-0.034,-0.10200000000000001
1701527134.412,19.609,19.609,-19.609,0.0029000000000000002,-0.001,0.0108,0.0,-0.042,-0.109
1701527134.452,19.609,19.609,-19.609,0.0032,-0.0015,0.0037,0.0,-0.043000000000000003,-0.112
1701527134.492,19.609,19.609,-19.609,0.0014,0.0008,0.0044,0.0,-0.052000000000000005,-0.114
1701527134.532,19.609,19.609,-19.609,0.004200000000000001,-0.0012000000000000001,-0.0007,0.001,-0.04,-0.105
1701527134.572,19.609,19.609,-19.609,0.004200000000000001,-0.0009000000000000001,0.0031000000000000003,-0.005,-0.038,-0.11
1701527134.612,19.609,19.609,-19.609,0.0029000000000000002,-0.0033,0.0079,-0.001,-0.036000000000000004,-0.108
1701527134.652,19.609,19.609,-19.609,0.0033,-0.0002,0.0056,-0.008,-0.04,-0.10200000000000001
1701527134.692,19.609,19.609,-19.609,0.0045000000000000005,0.0,0.004,-0.004,-0.041,-0.109
1701527134.732,19.609,19.609,-19.609,0.0039000000000000003,0.0009000000000000001,-0.0028,0.006,-0.05,-0.111
1701527134.772,19.609,19.609,-19.609,0.004,-0.002,0.0105,-0.002,-0.039,-0.112
1701527134.812,19.609,19.609,-19.609,0.0037,0.0004,-0.0005,0.001,-0.07200000000000001,-0.107
1701527134.852,19.609,19.609,-19.609,0.0056,-0.001,0.0119,-0.003,-0.046,-0.106
1701527134.892,19.609,19.609,-19.609,-0.0014,-0.0028,0.0011,-0.003,-0.038,-0.115
1701527134.932,19.609,19.609,-19.609,0.005,-0.0051,0.006,-0.005,-0.034,-0.105
1701527134.972,19.609,19.609,-19.609,0.0026000000000000003,0.0001,0.0114,0.023,-0.035,-0.108
1701527135.0119998,19.609,19.609,-19.609,0.0028,-0.0012000000000000001,0.0056,-0.001,-0.038,-0.11
1701527135.052,19.609,19.609,-19.609,0.0034000000000000002,-0.0034000000000000002,0.0015,0.003,-0.051000000000000004,-0.111
1701527135.092,19.609,19.609,-19.609,0.0031000000000000003,-0.0012000000000000001,0.002,0.003,-0.039,-0.108
1701527135.132,19.609,19.609,-19.609,0.004,-0.0014,0.0212,-0.003,-0.043000000000000003,-0.11
1701527135.172,19.609,19.609,-19.609,0.0032,-0.0004,0.0086,-0.006,-0.04,-0.105
1701527135.212,19.609,19.609,-19.609,0.004,-0.0024000000000000002,-0.0043,-0.001,-0.035,-0.11
1701527135.2519999,19.609,19.609,-19.609,0.0032,-0.0023,0.01,0.0,-0.038,-0.109
1701527135.292,19.609,19.609,-19.609,0.0057,0.0016,0.0041,-0.006,-0.051000000000000004,-0.105
1701527135.332,19.609,19.609,-19.609,0.0044,-0.0007,-0.0011,-0.005,-0.043000000000000003,-0.107
1701527135.372,19.609,19.609,-19.609,0.0021000000000000003,0.0005,0.007500000000000001,-0.005,-0.043000000000000003,-0.105
1701527135.412,19.609,19.609,-19.609,0.0015,-0.0029000000000000002,-0.0031000000000000003,-0.002,-0.048,-0.109
1701527135.452,19.609,19.609,-19.609,0.0037,-0.0014,0.012700000000000001,0.01,-0.041,-0.105
1701527135.4919999,19.609,19.609,-19.609,0.002,-0.0006000000000000001,0.0007,-0.003,-0.052000000000000005,-0.112
1701527135.532,19.609,19.609,-19.609,0.0024000000000000002,-0.0012000000000000001,-0.0037,-0.002,-0.04,-0.11
1701527135.572,19.609,19.609,-19.609,0.0037,-0.001,0.0167,0.0,-0.048,-0.111
1701527135.612,19.609,19.609,-19.609,-0.00030000000000000003,-0.0004,0.0046,-0.005,-0.033,-0.10400000000000001
1701527135.652,19.609,19.609,-19.609,0.0064,-0.0017000000000000001,0.0045000000000000005,0.003,-0.043000000000000003,-0.11
1701527135.692,19.609,19.609,-19.609,0.0045000000000000005,-0.002,0.0126,-0.003,-0.047,-0.113
1701527135.7319999,19.609,19.609,-19.609,0.0032,0.0013000000000000002,-0.0095,-0.001,-0.053,-0.11
1701527135.772,19.609,19.609,-19.609,0.002,0.0004,0.0028,0.0,-0.04,-0.106
1701527135.812,19.609,19.609,-19.609,0.0007,-0.0033,0.007500000000000001,-0.009000000000000001,-0.045,-0.11
1701527135.852,19.609,19.609,-19.609,0.004200000000000001,0.0001,-0.0017000000000000001,-0.004,-0.042,-0.114
1701527135.892,19.609,19.609,-19.609,0.0025,0.0012000000000000001,0.0032,-0.006,-0.044,-0.10300000000000001
1701527135.932,19.609,19.609,-19.609,0.0039000000000000003,0.00030000000000000003,0.0095,-0.005,-0.045,-0.114
1701527135.972,19.609,19.609,-19.609,0.0045000000000000005,-0.0014,-0.0027,-0.001,-0.05,-0.109
1701527136.012,19.609,19.609,-19.609,0.0028,0.0009000000000000001,-0.0097,-0.004,-0.057,-0.112
1701527136.052,19.609,19.609,-19.609,0.0028,0.001,-0.024900000000000002,0.005,-0.062,-0.114
1701527136.092,19.609,19.609,-19.609,0.0048000000000000004,-0.0014,0.0108,0.0,-0.051000000000000004,-0.112
1701527136.132,19.609,19.609,-19.609,0.001,-0.0006000000000000001,-0.0034000000000000002,0.002,-0.055,-0.11
1701527136.172,19.609,19.609,-19.609,0.0035,-0.0012000000000000001,0.014100000000000001,0.0,-0.05,-0.108
1701527136.212,19.609,19.609,-19.609,0.0027,0.0004,0.0058000000000000005,-0.002,-0.05,-0.106
1701527136.252,19.609,19.609,-19.609,0.0032,-0.0006000000000000001,0.0037,-0.001,-0.049,-0.11
1701527136.292,19.609,19.609,-19.609,0.0067,-0.0017000000000000001,0.0006000000000000001,-0.002,-0.044,-0.106
1701527136.332,19.609,19.609,-19.609,0.0039000000000000003,0.0,0.0028,0.003,-0.052000000000000005,-0.109
1701527136.372,19.609,19.609,-19.609,0.0018000000000000002,-0.0024000000000000002,0.006900000000000001,0.0,-0.06,-0.113
1701527136.412,19.609,19.609,-19.609,0.0012000000000000001,0.0001,0.0006000000000000001,0.0,-0.056,-0.107
1701527136.452,19.609,19.609,-19.609,0.0031000000000000003,-0.0014,-0.0011,0.003,-0.053,-0.11
1701527136.492,19.609,19.609,-19.609,0.0025,-0.0017000000000000001,0.013600000000000001,0.0,-0.055,-0.111
1701527136.532,19.609,19.609,-19.609,0.0023,-0.0014,0.001,0.029,-0.054,-0.115
1701527136.572,19.609,19.609,-19.609,0.0054,0.00030000000000000003,0.0025,-0.003,-0.058,-0.108
1701527136.612,19.609,19.609,-19.609,0.0026000000000000003,-0.0002,0.0015,-0.002,-0.055,-0.114
1701527136.652,19.609,19.609,-19.609,0.004,-0.0057,0.005200000000000001,0.0,-0.08,-0.113
1701527136.692,19.609,19.609,-19.609,0.003,-0.0007,0.0038,-0.002,-0.062,-0.10300000000000001
1701527136.732,19.609,19.609,-19.609,0.0039000000000000003,-0.0033,0.0021000000000000003,0.01,-0.054,-0.107
1701527136.772,19.609,19.609,-19.609,0.0025,0.0016,0.006,0.029,-0.042,-0.113
1701527136.812,19.609,19.609,-19.609,0.0021000000000000003,0.00030000000000000003,0.0088,-0.026000000000000002,-0.042,-0.111
1701527136.852,19.609,19.609,-19.609,0.0048000000000000004,-0.0021000000000000003,-0.008700000000000001,0.005,-0.063,-0.109
1701527136.892,19.609,19.609,-19.609,0.0012000000000000001,-0.0012000000000000001,0.0137,0.001,-0.06,-0.105
1701527136.932,19.609,19.609,-19.609,0.0032,-0.0009000000000000001,0.0155,0.0,-0.07100000000000001,-0.11
1701527136.972,19.609,19.609,-19.609,0.0026000000000000003,-0.0014,0.0109,-0.007,-0.051000000000000004,-0.114
1701527137.0119998,19.609,19.609,-19.609,0.004,0.00030000000000000003,0.0012000000000000001,-0.003,-0.049,-0.10400000000000001
1701527137.052,19.609,19.609,-19.609,0.0026000000000000003,-0.001,0.0036000000000000003,0.0,-0.048,-0.11
1701527137.092,19.609,19.609,-19.609,0.0008,-0.004,0.0109,0.0,-0.068,-0.109
1701527137.132,19.609,19.609,-19.609,0.0026000000000000003,-0.0016,0.0026000000000000003,-0.001,-0.049,-0.114
1701527137.172,19.609,19.609,-19.609,0.0037,0.0004,-0.0015,0.0,-0.056,-0.108
1701527137.212,19.609,19.609,-19.609,0.0057,0.0014,0.0103,0.003,-0.045,-0.10400000000000001
1701527137.2519999,19.609,19.609,-19.609,0.0032,0.0,0.0068000000000000005,-0.003,-0.051000000000000004,-0.107
1701527137.292,19.609,19.609,-19.609,0.0043,0.0007,0.0001,0.0,-0.05,-0.11
1701527137.332,19.609,19.609,-19.609,0.0037,-0.0013000000000000002,0.0089,-0.006,-0.047,-0.108
1701527137.372,19.609,19.609,-19.609,0.004,-0.004,0.008700000000000001,0.005,-0.043000000000000003,-0.10300000000000001
1701527137.412,19.609,19.609,-19.609,0.0036000000000000003,0.0007,0.0019,-0.003,-0.049,-0.111
1701527137.452,19.609,19.609,-19.609,0.0029000000000000002,-0.0025,0.0059,-0.003,-0.049,-0.10300000000000001
1701527137.4919999,19.609,19.609,-19.609,0.0019,-0.0007,-0.008400000000000001,0.0,-0.051000000000000004,-0.105
1701527137.532,19.609,19.609,-19.609,0.0023,-0.0007,0.0032,-0.007,-0.046,-0.107
1701527137.572,19.609,19.609,-19.609,0.0019,-0.0015,0.009600000000000001,0.001,-0.046,-0.111
1701527137.612,19.609,19.609,-19.609,0.0034000000000000002,-0.0017000000000000001,0.0019,-0.001,-0.045,-0.113
1701527137.652,19.609,19.609,-19.609,0.0014,0.0009000000000000001,0.0059,0.0,-0.04,-0.112
1701527137.692,19.609,19.609,-19.609,0.0036000000000000003,0.0022,0.0031000000000000003,0.0,-0.044,-0.108
1701527137.7319999,19.609,19.609,-19.609,0.0023,-0.0011,0.0038,-0.001,-0.055,-0.10300000000000001
1701527137.772,19.609,19.609,-19.609,0.0051,0.0013000000000000002,0.0032,0.0,-0.05,-0.105
1701527137.812,19.609,19.609,-19.609,0.0033,-0.0012000000000000001,-0.0155,-0.004,-0.045,-0.11
1701527137.852,19.609,19.609,-19.609,0.0049,0.0017000000000000001,0.0079,-0.003,-0.045,-0.108
1701527137.892,19.609,19.609,-19.609,0.0031000000000000003,-0.0028,0.0173,0.001,-0.038,-0.107
1701527137.932,19.609,19.609,-19.609,0.0014,-0.002,0.0036000000000000003,-0.004,-0.052000000000000005,-0.115
1701527137.972,19.609,19.609,-19.609,0.0018000000000000002,0.00030000000000000003,0.005,0.001,-0.056,-0.108
1701527138.012,19.609,19.609,-19.609,0.0029000000000000002,-0.0039000000000000003,0.007500000000000001,-0.003,-0.054,-0.107
1701527138.052,19.609,19.609,-19.609,0.0049,-0.0018000000000000002,0.0083,-0.004,-0.053,-0.106
1701527138.092,19.609,19.609,-19.609,0.0044,0.0004,-0.029900000000000003,0.009000000000000001,-0.052000000000000005,-0.106
1701527138.132,19.609,19.609,-19.609,0.0035,0.0009000000000000001,0.0222,-0.003,-0.051000000000000004,-0.105
1701527138.172,19.609,19.609,-19.609,0.0014,0.0009000000000000001,0.0103,-0.002,-0.045,-0.108
1701527138.212,19.609,19.609,-19.609,0.0009000000000000001,-0.00030000000000000003,0.0115,0.004,-0.062,-0.113
1701527138.252,19.609,19.609,-19.609,0.0061,-0.0015,0.0013000000000000002,0.0,-0.059000000000000004,-0.113
1701527138.292,19.609,19.609,-19.609,0.0025,-0.0029000000000000002,0.0078000000000000005,-0.002,-0.054,-0.113
1701527138.332,19.609,19.609,-19.609,0.0034000000000000002,-0.0004,0.016900000000000002,0.0,-0.053,-0.109
1701527138.372,19.609,19.609,-19.609,0.002,-0.0005,-0.0059,-0.002,-0.051000000000000004,-0.109
1701527138.412,19.609,19.609,-19.609,0.0037,-0.0021000000000000003,0.0041,-0.006,-0.044,-0.098
1701527138.452,19.609,19.609,-19.609,0.0012000000000000001,-0.0011,0.0083,0.0,-0.042,-0.106
1701527138.492,19.609,19.609,-19.609,0.0028,-0.0034000000000000002,0.004,-0.007,-0.08700000000000001,-0.108
1701527138.532,19.609,19.609,-19.609,0.0009000000000000001,-0.002,-0.0007,0.006,-0.047,-0.111
1701527138.572,19.609,19.609,-19.609,0.0031000000000000003,0.0,0.004200000000000001,-0.004,-0.049,-0.111
1701527138.612,19.609,19.609,-19.609,0.0028,-0.0007,-0.0176,0.0,-0.048,-0.106
1701527138.652,19.609,19.609,-19.609,0.0049,-0.0006000000000000001,0.0055000000000000005,-0.006,-0.039,-0.107
1701527138.692,19.609,19.609,-19.609,0.004200000000000001,-0.0005,0.0263,0.005,-0.034,-0.10200000000000001
1701527138.732,19.609,19.609,-19.609,0.0029000000000000002,-0.001,0.013800000000000002,0.019,-0.039,-0.107
1701527138.772,19.609,19.609,-19.609,0.004,-0.0014,-0.0032,-0.044,-0.026000000000000002,-0.101
1701527138.812,19.609,19.609,-19.609,0.0023,0.00030000000000000003,0.0078000000000000005,-0.006,-0.03,-0.109
1701527138.852,19.609,19.609,-19.609,0.0034000000000000002,-0.002,0.0055000000000000005,-0.003,-0.026000000000000002,-0.108
1701527138.892,19.609,19.609,-19.609,0.0023,-0.0013000000000000002,0.0017000000000000001,-0.004,-0.041,-0.105
1701527138.932,19.609,19.609,-19.609,0.0019,-0.0012000000000000001,0.009600000000000001,0.001,-0.016,-0.11
1701527138.972,19.609,19.609,-19.609,0.0055000000000000005,-0.0033,0.0036000000000000003,0.004,-0.055,-0.107
1701527139.0119998,19.609,19.609,-19.609,0.0051,-0.0016,0.0058000000000000005,-0.006,-0.049,-0.10400000000000001
1701527139.052,19.609,19.609,-19.609,0.00030000000000000003,-0.0026000000000000003,-0.0053,-0.007,-0.032,-0.105
1701527139.092,19.609,19.609,-19.609,0.004200000000000001,0.0,0.008700000000000001,-0.005,-0.028,-0.105
1701527139.132,19.609,19.609,-19.609,0.0043,-0.0004,0.0128,-0.005,-0.035,-0.108
1701527139.172,19.609,19.609,-19.609,0.003,-0.002,0.0039000000000000003,-0.003,-0.043000000000000003,-0.105
1701527139.212,19.609,19.609,-19.609,0.0027,-0.0031000000000000003,-0.0037,-0.002,-0.047,-0.106
1701527139.2519999,19.609,19.609,-19.609,0.0046,-0.00030000000000000003,0.0117,-0.007,-0.047,-0.11
1701527139.292,19.609,19.609,-19.609,0.0026000000000000003,-0.0017000000000000001,0.006200000000000001,0.001,-0.034,-0.107
1701527139.332,19.609,19.609,-19.609,0.0029000000000000002,-0.0029000000000000002,-0.0013000000000000002,-0.003,-0.032,-0.109
1701527139.372,19.609,19.609,-19.609,0.0017000000000000001,-0.0012000000000000001,0.0,-0.005,-0.031,-0.108
1701527139.412,19.609,19.609,-19.609,0.0006000000000000001,-0.0012000000000000001,-0.0001,-0.007,-0.03,-0.11
1701527139.452,19.609,19.609,-19.609,0.002,0.0002,0.013900000000000001,-0.004,-0.028,-0.10300000000000001
1701527139.4919999,19.609,19.609,-19.609,0.0017000000000000001,-0.0019,0.013800000000000002,-0.007,-0.025,-0.1
1701527139.532,19.609,19.609,-19.609,0.0044,0.0021000000000000003,-0.022500000000000003,-0.006,-0.023,-0.1
1701527139.572,19.609,19.609,-19.609,0.004,-0.0007,0.020300000000000002,-0.003,-0.029,-0.101
1701527139.612,19.609,19.609,-19.609,0.0015,-0.0007,0.0097,-0.003,-0.03,-0.107
1701527139.652,19.609,19.609,-19.609,0.0043,-0.0033,0.007500000000000001,-0.006,-0.03,-0.105
1701527139.692,19.609,19.609,-19.609,0.0008,-0.0015,-0.0009000000000000001,-0.002,-0.033,-0.10400000000000001
1701527139.7319999,19.609,19.609,-19.609,0.0043,0.0009000000000000001,-0.013900000000000001,0.0,-0.027,-0.1
1701527139.772,19.609,19.609,-19.609,0.0034000000000000002,0.0001,0.013900000000000001,-0.014,-0.03,-0.10300000000000001
1701527139.812,19.609,19.609,-19.609,0.0022,-0.0019,0.0106,-0.012,-0.019,-0.099
1701527139.852,19.609,19.609,-19.609,0.0014,-0.002,-0.0031000000000000003,-0.008,-0.011,-0.1
1701527139.892,19.609,19.609,-19.609,0.0026000000000000003,-0.0013000000000000002,0.0014,-0.006,-0.015,-0.097
1701527139.932,19.609,19.609,-19.609,0.0028,-0.0014,0.0045000000000000005,-0.007,-0.022,-0.10400000000000001
1701527139.972,19.609,19.609,-19.609,0.0001,-0.0015,0.0057,-0.001,-0.04,-0.10300000000000001
1701527140.012,19.609,19.609,-19.609,0.002,-0.0036000000000000003,0.0057,-0.002,-0.045,-0.109
1701527140.052,19.609,19.609,-19.609,0.0045000000000000005,-0.0025,0.0017000000000000001,-0.001,-0.026000000000000002,-0.11
1701527140.092,19.609,19.609,-19.609,0.0009000000000000001,0.00030000000000000003,0.0026000000000000003,-0.009000000000000001,-0.03,-0.11
1701527140.132,19.609,19.609,-19.609,0.0015,-0.0031000000000000003,0.0002,-0.001,-0.042,-0.112
1701527140.172,19.609,19.609,-19.609,0.0047,-0.0009000000000000001,0.0078000000000000005,-0.002,-0.034,-0.108
1701527140.212,19.609,19.609,-19.609,0.0039000000000000003,-0.0008,0.0021000000000000003,-0.001,-0.035,-0.10400000000000001
1701527140.252,19.609,19.609,-19.609,0.0014,-0.0014,0.0012000000000000001,-0.002,-0.042,-0.115
1701527140.292,19.609,19.609,-19.609,0.0051,-0.0012000000000000001,0.0142,-0.005,-0.043000000000000003,-0.11
1701527140.332,19.609,19.609,-19.609,0.0045000000000000005,0.0,-0.0031000000000000003,-0.001,-0.035,-0.105
1701527140.372,19.609,19.609,-19.609,0.0056,-0.0015,0.0,-0.007,-0.028,-0.106
1701527140.412,19.609,19.609,-19.609,0.0018000000000000002,0.0002,0.0045000000000000005,-0.008,-0.027,-0.105
1701527140.452,19.609,19.609,-19.609,0.0023,-0.001,0.0061,-0.004,-0.023,-0.10200000000000001
1701527140.492,19.609,19.609,-19.609,0.0043,-0.0008,0.0076,-0.007,-0.03,-0.106
1701527140.532,19.609,19.609,-19.609,0.0021000000000000003,-0.0017000000000000001,-0.0009000000000000001,-0.011,-0.033,-0.101
1701527140.572,19.609,19.609,-19.609,0.0029000000000000002,-0.0009000000000000001,-0.0061,-0.005,-0.035,-0.106
1701527140.612,19.609,19.609,-19.609,0.004200000000000001,0.0001,0.012700000000000001,0.001,-0.035,-0.105
1701527140.652,19.609,19.609,-19.609,0.0021000000000000003,-0.0015,0.0068000000000000005,-0.009000000000000001,-0.036000000000000004,-0.106
1701527140.692,19.609,19.609,-19.609,0.0019,-0.0012000000000000001,-0.0017000000000000001,-0.008,-0.04,-0.109
1701527140.732,19.609,19.609,-19.609,0.0077,0.0006000000000000001,-0.0012000000000000001,0.0,-0.037,-0.108
1701527140.772,19.609,19.609,-19.609,0.0028,-0.002,0.0091,-0.003,-0.038,-0.11
1701527140.812,19.609,19.609,-19.609,0.0044,-0.0017000000000000001,0.0013000000000000002,0.0,-0.036000000000000004,-0.112
1701527140.852,19.609,19.609,-19.609,0.0005,-0.0017000000000000001,-0.0088,-0.007,-0.039,-0.106
1701527140.892,19.609,19.609,-19.609,0.0026000000000000003,-0.0011,0.0094,-0.002,-0.042,-0.10200000000000001
1701527140.932,19.609,19.609,-19.609,0.0019,-0.0012000000000000001,0.0028,-0.008,-0.041,-0.10400000000000001
1701527140.972,19.609,19.609,-19.609,0.0044,-0.0018000000000000002,0.0064,-0.003,-0.046,-0.101
1701527141.0119998,19.609,19.609,-19.609,0.0029000000000000002,-0.0016,0.0031000000000000003,-0.002,-0.045,-0.10200000000000001
1701527141.052,19.609,19.609,-19.609,0.0046,0.0007,0.0008,-0.006,-0.043000000000000003,-0.101
1701527141.092,19.609,19.609,-19.609,0.0009000000000000001,-0.0023,0.0023,-0.003,-0.028,-0.10300000000000001
1701527141.132,19.609,19.609,-19.609,0.0028,-0.0018000000000000002,0.0076,0.0,-0.029,-0.11
1701527141.172,19.609,19.609,-19.609,0.0055000000000000005,-0.0031000000000000003,0.0046,-0.005,-0.036000000000000004,-0.10400000000000001
1701527141.212,19.609,19.609,-19.609,-0.0004,-0.0014,-0.0043,-0.002,-0.05,-0.10400000000000001
1701527141.2519999,19.609,19.609,-19.609,0.0015,-0.0014,0.0137,0.004,-0.046,-0.10400000000000001
1701527141.292,19.609,19.609,-19.609,0.0023,0.0,-0.0085,-0.001,-0.036000000000000004,-0.101
1701527141.332,19.609,19.609,-19.609,0.0043,-0.00030000000000000003,0.0031000000000000003,-0.003,-0.037,-0.105
1701527141.372,19.609,19.609,-19.609,0.0036000000000000003,0.00030000000000000003,0.003,-0.003,-0.043000000000000003,-0.105
1701527141.412,19.609,19.609,-19.609,0.0031000000000000003,-0.0009000000000000001,0.0296,-0.002,-0.04,-0.107
1701527141.452,19.609,19.609,-19.609,0.0035,-0.0035,0.00030000000000000003,0.0,-0.041,-0.109
1701527141.4919999,19.609,19.609,-19.609,0.002,0.0002,-0.017,-0.005,-0.046,-0.109
1701527141.532,19.609,19.609,-19.609,0.0025,0.0006000000000000001,0.019100000000000002,-0.002,-0.048,-0.11
1701527141.572,19.609,19.609,-19.609,0.0001,0.002,-0.0025,0.0,-0.037,-0.105
1701527141.612,19.609,19.609,-19.609,0.0045000000000000005,-0.0021000000000000003,0.007500000000000001,-0.007,-0.039,-0.11
1701527141.652,19.609,19.609,-19.609,0.0048000000000000004,0.0,0.0092,-0.007,-0.043000000000000003,-0.10300000000000001
1701527141.692,19.609,19.609,-19.609,0.003,-0.0015,0.005,-0.004,-0.036000000000000004,-0.105
1701527141.7319999,19.609,19.609,-19.609,0.0031000000000000003,-0.0021000000000000003,0.007200000000000001,-0.002,-0.036000000000000004,-0.10200000000000001
1701527141.772,19.609,19.609,-19.609,0.0053,0.0,-0.0023,-0.007,-0.036000000000000004,-0.108
1701527141.812,19.609,19.609,-19.609,0.0037,0.0,0.0048000000000000004,-0.005,-0.041,-0.107
1701527141.852,19.609,19.609,-19.609,0.0036000000000000003,0.0004,0.0023,0.0,-0.024,-0.111
1701527141.892,19.609,19.609,-19.609,0.002,-0.001,0.0028,0.0,-0.046,-0.109
1701527141.932,19.609,19.609,-19.609,0.0009000000000000001,-0.0008,0.0027,-0.004,-0.039,-0.11
1701527141.972,19.609,19.609,-19.609,0.0017000000000000001,-0.0022,0.0,-0.003,-0.041,-0.108
1701527142.012,19.609,19.609,-19.609,0.0005,0.0002,0.0018000000000000002,0.0,-0.041,-0.109
1701527142.052,19.609,19.609,-19.609,0.0025,-0.0002,0.0155,-0.005,-0.037,-0.112
1701527142.092,19.609,19.609,-19.609,-0.0013000000000000002,-0.0027,0.0021000000000000003,0.004,-0.037,-0.108
1701527142.132,19.609,19.609,-19.609,0.0013000000000000002,0.0001,0.0067,0.0,-0.043000000000000003,-0.111
1701527142.172,19.609,19.609,-19.609,0.0036000000000000003,0.0014,0.0028,0.002,-0.037,-0.107
1701527142.212,19.609,19.609,-19.609,0.0014,0.0005,0.0111,-0.002,-0.051000000000000004,-0.101
1701527142.252,19.609,19.609,-19.609,0.0011,0.0014,0.0036000000000000003,-0.001,-0.05,-0.11
1701527142.292,19.609,19.609,-19.609,0.0044,-0.0007,0.013300000000000001,-0.003,-0.038,-0.10400000000000001
1701527142.332,19.609,19.609,-19.609,0.005,0.0015,-0.0036000000000000003,-0.002,-0.014,-0.10300000000000001
1701527142.372,19.609,19.609,-19.609,0.0032,0.0001,-0.0024000000000000002,0.004,-0.035,-0.11
1701527142.412,19.609,19.609,-19.609,0.0007,0.0009000000000000001,0.0132,0.0,-0.039,-0.106
1701527142.452,19.609,19.609,-19.609,0.003,-0.001,0.002,-0.005,-0.053,-0.107
1701527142.492,19.609,19.609,-19.609,0.0018000000000000002,-0.001,0.0045000000000000005,-0.003,-0.045,-0.105
1701527142.532,19.609,19.609,-19.609,0.004,-0.0006000000000000001,-0.007200000000000001,-0.002,-0.04,-0.106
1701527142.572,19.609,19.609,-19.609,0.0035,-0.0022,0.007200000000000001,-0.006,-0.026000000000000002,-0.107
1701527142.612,19.609,19.609,-19.609,0.0034000000000000002,-0.0023,-0.0018000000000000002,-0.007,-0.033,-0.101
1701527142.652,19.609,19.609,-19.609,0.0019,-0.001,0.0031000000000000003,0.0,-0.045,-0.1
1701527142.692,19.609,19.609,-19.609,0.0048000000000000004,-0.002,0.0037,0.0,-0.046,-0.108
1701527142.732,19.609,19.609,-19.609,0.0027,0.0008,-0.0012000000000000001,-0.002,-0.047,-0.106
1701527142.772,19.609,19.609,-19.609,0.003,-0.003,0.012,-0.004,-0.051000000000000004,-0.108
1701527142.812,19.609,19.609,-19.609,0.0032,-0.0039000000000000003,-0.0017000000000000001,-0.004,-0.044,-0.109
1701527142.852,19.609,19.609,-19.609,0.0026000000000000003,-0.0007,0.0095,-0.001,-0.041,-0.109
1701527142.892,19.609,19.609,-19.609,0.0012000000000000001,-0.0023,-0.0058000000000000005,-0.003,-0.041,-0.106
1701527142.932,19.609,19.609,-19.609,0.0015,-0.0006000000000000001,0.013300000000000001,-0.001,-0.049,-0.108
1701527142.972,19.609,19.609,-19.609,0.0023,-0.0004,0.00030000000000000003,-0.005,-0.049,-0.107
1701527143.0119998,19.609,19.609,-19.609,0.0044,0.0002,-0.0008,0.001,-0.046,-0.10300000000000001
1701527143.052,19.609,19.609,-19.609,0.0032,-0.0021000000000000003,0.0006000000000000001,0.002,-0.055,-0.109
1701527143.092,19.609,19.609,-19.609,0.0029000000000000002,-0.001,0.0021000000000000003,0.006,-0.052000000000000005,-0.107
1701527143.132,19.609,19.609,-19.609,0.0022,-0.0012000000000000001,0.0048000000000000004,0.0,-0.055,-0.107
1701527143.172,19.609,19.609,-19.609,0.0039000000000000003,-0.003,-0.0002,0.0,-0.043000000000000003,-0.106
1701527143.212,19.609,19.609,-19.609,0.0026000000000000003,-0.0014,-0.006200000000000001,-0.003,-0.047,-0.105
1701527143.2519999,19.609,19.609,-19.609,0.006,0.0009000000000000001,0.015300000000000001,-0.001,-0.045,-0.106
1701527143.292,19.609,19.609,-19.609,0.0012000000000000001,-0.0031000000000000003,-0.006500000000000001,0.0,-0.051000000000000004,-0.109
1701527143.332,19.609,19.609,-19.609,0.0032,-0.00030000000000000003,0.0117,0.004,-0.056,-0.108
1701527143.372,19.609,19.609,-19.609,0.0029000000000000002,-0.0005,-0.0041,0.001,-0.057,-0.111
1701527143.412,19.609,19.609,-19.609,0.0029000000000000002,0.0006000000000000001,-0.0008,0.009000000000000001,-0.048,-0.11
1701527143.452,19.609,19.609,-19.609,0.0022,0.0006000000000000001,0.0043,0.0,-0.055,-0.107
1701527143.4919999,19.609,19.609,-19.609,0.0009000000000000001,-0.0025,0.0097,-0.005,-0.044,-0.107
1701527143.532,19.609,19.609,-19.609,0.0001,-0.0012000000000000001,0.006900000000000001,-0.003,-0.04,-0.108
1701527143.572,19.609,19.609,-19.609,0.0024000000000000002,-0.0002,0.009600000000000001,-0.006,-0.034,-0.11
1701527143.612,19.609,19.609,-19.609,0.0036000000000000003,-0.0006000000000000001,-0.0021000000000000003,-0.002,-0.04,-0.109
1701527143.652,19.609,19.609,-19.609,0.002,-0.003,0.0077,0.001,-0.06,-0.105
1701527143.692,19.609,19.609,-19.609,0.0023,-0.0014,-0.0043,0.002,-0.062,-0.11
1701527143.7319999,19.609,19.609,-19.609,0.0009000000000000001,0.0,0.003,0.014,-0.042,-0.105
1701527143.772,19.609,19.609,-19.609,0.0013000000000000002,-0.0023,0.012700000000000001,-0.004,-0.043000000000000003,-0.108
1701527143.812,19.609,19.609,-19.609,0.0045000000000000005,-0.0008,-0.010400000000000001,-0.007,-0.039,-0.112
1701527143.852,19.609,19.609,-19.609,0.0039000000000000003,-0.00030000000000000003,0.0044,-0.009000000000000001,-0.047,-0.101
1701527143.892,19.609,19.609,-19.609,0.0031000000000000003,-0.001,0.0015,-0.001,-0.056,-0.105
1701527143.932,19.609,19.609,-19.609,0.0001,-0.0011,0.0001,-0.001,-0.055,-0.108
1701527143.972,19.609,19.609,-19.609,0.0005,-0.002,0.012100000000000001,0.013000000000000001,-0.054,-0.11
1701527144.012,19.609,19.609,-19.609,0.0031000000000000003,-0.0017000000000000001,0.0085,0.003,-0.059000000000000004,-0.111
1701527144.052,19.609,19.609,-19.609,0.0037,-0.0016,0.011600000000000001,0.003,-0.052000000000000005,-0.11
1701527144.092,19.609,19.609,-19.609,0.004200000000000001,-0.0012000000000000001,0.0073,0.008,-0.051000000000000004,-0.109
1701527144.132,19.609,19.609,-19.609,0.0031000000000000003,-0.0009000000000000001,0.0,-0.002,-0.05,-0.108
1701527144.172,19.609,19.609,-19.609,0.0023,0.0,0.0023,0.004,-0.055,-0.108
1701527144.212,19.609,19.609,-19.609,0.0047,0.0006000000000000001,-0.0017000000000000001,0.0,-0.058,-0.106
1701527144.252,19.609,19.609,-19.609,0.003,0.0004,-0.0007,0.006,-0.045,-0.11
1701527144.292,19.609,19.609,-19.609,0.002,-0.00030000000000000003,0.0123,0.003,-0.058,-0.113
1701527144.332,19.609,19.609,-19.609,0.0028,-0.0002,0.0063,0.004,-0.053,-0.109
1701527144.372,19.609,19.609,-19.609,0.0038,-0.0004,0.0073,0.003,-0.052000000000000005,-0.112
1701527144.412,19.609,19.609,-19.609,0.0037,-0.0035,-0.0029000000000000002,0.003,-0.062,-0.108
1701527144.452,19.609,19.609,-19.609,0.0022,-0.0006000000000000001,-0.004200000000000001,0.019,-0.055,-0.105
1701527144.492,19.609,19.609,-19.609,0.0033,0.0,0.007500000000000001,0.001,-0.055,-0.111
1701527144.532,19.609,19.609,-19.609,0.0024000000000000002,-0.0023,0.00030000000000000003,0.006,-0.053,-0.111
1701527144.572,19.609,19.609,-19.609,0.0032,-0.0005,0.005,0.0,-0.057,-0.107
1701527144.612,19.609,19.609,-19.609,0.0051,-0.0001,0.0013000000000000002,0.004,-0.062,-0.106
1701527144.652,19.609,19.609,-19.609,0.0017000000000000001,0.0015,0.007500000000000001,-0.003,-0.052000000000000005,-0.10300000000000001
1701527144.692,19.609,19.609,-19.609,0.0017000000000000001,-0.0006000000000000001,0.0014,0.003,-0.042,-0.105
1701527144.732,19.609,19.609,-19.609,0.0,0.0007,0.0054,0.002,-0.042,-0.108
1701527144.772,19.609,19.609,-19.609,0.0025,-0.0007,0.006500000000000001,0.0,-0.055,-0.109
1701527144.812,19.609,19.609,-19.609,0.0017000000000000001,0.0021000000000000003,0.0011,0.0,-0.063,-0.108
1701527144.852,19.609,19.609,-19.609,0.0024000000000000002,-0.0009000000000000001,0.0021000000000000003,-0.002,-0.059000000000000004,-0.105
1701527144.892,19.609,19.609,-19.609,0.0029000000000000002,-0.002,0.0024000000000000002,-0.002,-0.056,-0.107
1701527144.932,19.609,19.609,-19.609,0.0032,0.0002,0.0048000000000000004,-0.008,-0.043000000000000003,-0.108
1701527144.972,19.609,19.609,-19.609,0.0024000000000000002,0.00030000000000000003,-0.00030000000000000003,-0.006,-0.046,-0.107
1701527145.0119998,19.609,19.609,-19.609,0.0021000000000000003,-0.0016,-0.0071,0.0,-0.055,-0.109
1701527145.052,19.609,19.609,-19.609,0.0039000000000000003,-0.0014,0.0022,-0.002,-0.057,-0.108
1701527145.092,19.609,19.609,-19.609,0.0021000000000000003,-0.0029000000000000002,-0.0118,0.001,-0.054,-0.112
1701527145.132,19.609,19.609,-19.609,0.002,-0.0025,-0.0038,-0.001,-0.051000000000000004,-0.108
1701527145.172,19.609,19.609,-19.609,0.0028,0.0,0.0012000000000000001,0.004,-0.056,-0.108
1701527145.212,19.609,19.609,-19.609,0.0012000000000000001,-0.0038,-0.0012000000000000001,0.001,-0.054,-0.114
1701527145.2519999,19.609,19.609,-19.609,0.0034000000000000002,-0.002,0.0036000000000000003,0.001,-0.054,-0.109
1701527145.292,19.609,19.609,-19.609,0.0018000000000000002,-0.0006000000000000001,0.0019,-0.003,-0.047,-0.112
1701527145.332,19.609,19.609,-19.609,0.0018000000000000002,-0.0026000000000000003,-0.0012000000000000001,0.002,-0.051000000000000004,-0.107
1701527145.372,19.609,19.609,-19.609,0.0018000000000000002,-0.00030000000000000003,0.0076,-0.005,-0.044,-0.10300000000000001
1701527145.412,19.609,19.609,-19.609,0.0043,-0.0021000000000000003,0.0016,-0.004,-0.041,-0.115
1701527145.452,19.609,19.609,-19.609,0.0024000000000000002,-0.001,0.011600000000000001,-0.005,-0.046,-0.112
1701527145.4919999,19.609,19.609,-19.609,0.0014,-0.0005,-0.01,-0.001,-0.05,-0.112
1701527145.532,19.609,19.609,-19.609,0.0013000000000000002,-0.0023,0.017,-0.004,-0.04,-0.10300000000000001
1701527145.572,19.609,19.609,-19.609,0.0037,-0.0006000000000000001,-0.00030000000000000003,0.003,-0.047,-0.108
1701527145.612,19.609,19.609,-19.609,0.002,-0.0041,0.0027,0.0,-0.047,-0.106
1701527145.652,19.609,19.609,-19.609,0.0023,-0.0006000000000000001,0.0054,-0.001,-0.053,-0.10400000000000001
1701527145.692,19.609,19.609,-19.609,0.0045000000000000005,-0.0039000000000000003,0.0007,-0.005,-0.036000000000000004,-0.109
1701527145.7319999,19.609,19.609,-19.609,0.0024000000000000002,-0.00030000000000000003,-0.007,-0.001,-0.036000000000000004,-0.109
1701527145.772,19.609,19.609,-19.609,0.002,0.0009000000000000001,0.0028,0.0,-0.003,-0.106
1701527145.812,19.609,19.609,-19.609,0.0037,-0.0002,0.0004,0.006,-0.044,-0.107
1701527145.852,19.609,19.609,-19.609,0.0014,-0.0008,0.0049,0.056,-0.057,-0.107
1701527145.892,19.609,19.609,-19.609,0.0007,0.00030000000000000003,0.0078000000000000005,0.002,-0.051000000000000004,-0.106
1701527145.932,19.609,19.609,-19.609,0.004,-0.0014,0.0083,-0.01,-0.044,-0.10300000000000001
1701527145.972,19.609,19.609,-19.609,0.002,-0.0002,0.0,0.0,-0.052000000000000005,-0.11
1701527146.012,19.609,19.609,-19.609,0.0006000000000000001,-0.0013000000000000002,0.0057,0.001,-0.051000000000000004,-0.10400000000000001
1701527146.052,19.609,19.609,-19.609,0.0027,0.0008,0.0089,0.0,-0.05,-0.109
