timestamp,acc_x,acc_y,acc_z,magn_x,magn_y,magn_z,gyro_x,gyro_y,gyro_z
1701527299.769,19.609,19.609,-19.609,0.0031000000000000003,-0.00030000000000000003,-0.0015,0.0,-0.048,-0.107
1701527299.809,19.609,19.609,-19.609,0.00030000000000000003,-0.00030000000000000003,0.0014,0.04,-0.042,-0.101
1701527299.849,19.609,19.609,-19.609,0.0027,-0.0001,-0.0029000000000000002,-0.007,-0.044,-0.097
1701527299.889,19.609,19.609,-19.609,0.0017000000000000001,-0.0006000000000000001,0.0039000000000000003,-0.006,-0.039,-0.09
1701527299.929,19.609,19.609,-19.609,0.0009000000000000001,-0.001,-0.0013000000000000002,0.005,-0.047,-0.108
1701527299.9689999,19.609,19.609,-19.609,0.0002,-0.0019,-0.0025,0.001,-0.074,-0.112
1701527300.009,19.609,19.609,-19.609,0.0036000000000000003,0.0008,0.0025,-0.007,-0.026000000000000002,-0.108
1701527300.049,19.609,19.609,-19.609,0.0009000000000000001,0.0011,-0.0034000000000000002,-0.025,-0.026000000000000002,-0.093
1701527300.089,19.609,19.609,-19.609,-0.0009000000000000001,-0.0005,0.0007,-0.01,-0.028,-0.099
1701527300.129,19.609,19.609,-19.609,0.0023,-0.0021000000000000003,0.0047,-0.01,-0.041,-0.10300000000000001
1701527300.169,19.609,19.609,-19.609,0.0014,0.0019,0.0046,0.008,-0.047,-0.10400000000000001
1701527300.2089999,19.609,19.609,-19.609,0.002,0.0009000000000000001,0.0032,0.002,-0.049,-0.1
1701527300.249,19.609,19.609,-19.609,-0.0015,0.00030000000000000003,-0.0098,-0.001,-0.034,-0.092
1701527300.289,19.609,19.609,-19.609,0.0004,0.0008,0.0043,-0.004,-0.022,-0.10300000000000001
1701527300.329,19.609,19.609,-19.609,-0.0008,0.0,0.0013000000000000002,-0.034,-0.016,-0.094
1701527300.369,19.609,19.609,-19.609,0.0015,0.00030000000000000003,-0.01,-0.007,-0.015,-0.095
1701527300.409,19.609,19.609,-19.609,0.0049,-0.0009000000000000001,0.0038,0.006,-0.037,-0.1
1701527300.449,19.609,19.609,-19.609,0.0009000000000000001,-0.0029000000000000002,0.0027,0.01,-0.041,-0.10200000000000001
1701527300.489,19.609,19.609,-19.609,0.004,-0.0023,-0.005200000000000001,0.004,-0.048,-0.10300000000000001
1701527300.529,19.609,19.609,-19.609,-0.002,-0.0021000000000000003,0.007200000000000001,-0.007,-0.048,-0.1
1701527300.569,19.609,19.609,-19.609,0.0025,0.0001,-0.0031000000000000003,-0.008,-0.05,-0.10200000000000001
1701527300.609,19.609,19.609,-19.609,0.004,0.0,-0.0073,-0.004,-0.053,-0.10200000000000001
1701527300.649,19.609,19.609,-19.609,0.00030000000000000003,-0.002,0.0054,-0.011,-0.045,-0.096
1701527300.689,19.609,19.609,-19.609,0.0006000000000000001,-0.0004,0.0,0.005,-0.04,-0.098
1701527300.729,19.609,19.609,-19.609,0.0025,0.0001,0.0048000000000000004,0.012,-0.037,-0.10200000000000001
1701527300.769,19.609,19.609,-19.609,0.0023,-0.0005,-0.0056,0.011,-0.039,-0.10300000000000001
1701527300.809,19.609,19.609,-19.609,-0.0027,-0.0015,0.0059,-0.002,-0.042,-0.098
1701527300.849,19.609,19.609,-19.609,0.0014,-0.0029000000000000002,0.0,-0.005,-0.049,-0.098
1701527300.889,19.609,19.609,-19.609,0.0,-0.0013000000000000002,0.0009000000000000001,0.01,-0.048,-0.10200000000000001
1701527300.929,19.609,19.609,-19.609,0.0009000000000000001,-0.0002,-0.0111,0.012,-0.037,-0.11800000000000001
1701527300.969,19.609,19.609,-19.609,0.0023,-0.00030000000000000003,0.0045000000000000005,-0.003,-0.034,-0.126
1701527301.009,19.609,19.609,-19.609,-0.0016,0.0009000000000000001,0.0128,-0.026000000000000002,-0.027,-0.10300000000000001
1701527301.049,19.609,19.609,-19.609,-0.0006000000000000001,-0.0017000000000000001,-0.008400000000000001,-0.037,-0.034,-0.096
1701527301.089,19.609,19.609,-19.609,0.001,-0.0012000000000000001,0.015300000000000001,-0.011,-0.046,-0.107
1701527301.129,19.609,19.609,-19.609,0.0007,0.0007,0.0106,0.012,-0.076,-0.13
1701527301.169,19.609,19.609,-19.609,0.0006000000000000001,-0.0007,0.0025,0.013000000000000001,-0.074,-0.11900000000000001
1701527301.209,19.609,19.609,-19.609,-0.00030000000000000003,-0.0015,-0.008,-0.007,-0.055,-0.108
1701527301.249,19.609,19.609,-19.609,0.0021000000000000003,0.0013000000000000002,0.0017000000000000001,-0.019,-0.037,-0.111
1701527301.289,19.609,19.609,-19.609,0.00030000000000000003,-0.0023,-0.004200000000000001,-0.014,-0.03,-0.10300000000000001
1701527301.329,19.609,19.609,-19.609,0.0007,-0.0016,-0.0035,-0.006,-0.034,-0.105
1701527301.369,19.609,19.609,-19.609,-0.0011,-0.0021000000000000003,0.007500000000000001,0.02,-0.047,-0.109
1701527301.409,19.609,19.609,-19.609,-0.0007,-0.0004,-0.0061,0.01,-0.052000000000000005,-0.114
1701527301.449,19.609,19.609,-19.609,0.0001,0.0012000000000000001,-0.0053,0.006,-0.045,-0.10300000000000001
1701527301.4889998,19.609,19.609,-19.609,0.0011,-0.0021000000000000003,-0.0081,0.0,-0.043000000000000003,-0.101
1701527301.529,19.609,19.609,-19.609,0.0,0.0004,-0.0005,-0.008,-0.036000000000000004,-0.105
1701527301.569,19.609,19.609,-19.609,-0.0014,0.00030000000000000003,-0.006,0.001,-0.043000000000000003,-0.099
1701527301.609,19.609,19.609,-19.609,0.0014,-0.0015,-0.00030000000000000003,0.01,-0.048,-0.1
1701527301.649,19.609,19.609,-19.609,0.0015,0.0,-0.0055000000000000005,0.005,-0.042,-0.10300000000000001
1701527301.689,19.609,19.609,-19.609,0.0014,0.0001,0.001,0.003,-0.041,-0.10300000000000001
1701527301.7289999,19.609,19.609,-19.609,-0.0002,-0.0014,0.0055000000000000005,0.001,-0.034,-0.105
1701527301.769,19.609,19.609,-19.609,0.0005,-0.0025,-0.0046,-0.001,-0.059000000000000004,-0.10200000000000001
1701527301.809,19.609,19.609,-19.609,0.0028,-0.002,0.0061,-0.001,-0.043000000000000003,-0.107
1701527301.849,19.609,19.609,-19.609,0.0046,-0.002,-0.0051,0.003,-0.039,-0.093
1701527301.889,19.609,19.609,-19.609,0.0014,-0.00030000000000000003,0.001,-0.029,-0.04,-0.108
1701527301.929,19.609,19.609,-19.609,0.0006000000000000001,-0.0014,-0.004200000000000001,-0.003,-0.033,-0.111
1701527301.9689999,19.609,19.609,-19.609,-0.004200000000000001,-0.0021000000000000003,0.0006000000000000001,-0.011,-0.022,-0.109
1701527302.009,19.609,19.609,-19.609,0.0012000000000000001,0.0001,-0.0006000000000000001,-0.01,-0.024,-0.099
1701527302.049,19.609,19.609,-19.609,0.0014,0.00030000000000000003,-0.007200000000000001,-0.003,-0.04,-0.099
1701527302.089,19.609,19.609,-19.609,0.0,0.0015,0.002,0.004,-0.053,-0.126
1701527302.129,19.609,19.609,-19.609,0.0025,-0.0013000000000000002,-0.0013000000000000002,-0.012,-0.05,-0.107
1701527302.169,19.609,19.609,-19.609,0.0012000000000000001,-0.0014,0.0024000000000000002,-0.016,-0.043000000000000003,-0.1
1701527302.2089999,19.609,19.609,-19.609,0.0017000000000000001,-0.0016,-0.0034000000000000002,-0.023,-0.036000000000000004,-0.107
1701527302.249,19.609,19.609,-19.609,-0.0006000000000000001,0.00030000000000000003,-0.0011,-0.013000000000000001,-0.028,-0.105
1701527302.289,19.609,19.609,-19.609,-0.0011,-0.0028,0.002,-0.018000000000000002,-0.036000000000000004,-0.10200000000000001
1701527302.329,19.609,19.609,-19.609,0.001,0.0007,0.0035,-0.003,-0.037,-0.101
1701527302.369,19.609,19.609,-19.609,-0.00030000000000000003,-0.0007,-0.0071,0.009000000000000001,-0.046,-0.10200000000000001
1701527302.409,19.609,19.609,-19.609,0.0018000000000000002,0.0,0.0032,0.0,-0.043000000000000003,-0.10400000000000001
1701527302.449,19.609,19.609,-19.609,0.0026000000000000003,-0.001,0.0045000000000000005,0.001,-0.042,-0.1
1701527302.489,19.609,19.609,-19.609,-0.0004,0.001,0.0029000000000000002,-0.007,-0.038,-0.097
1701527302.529,19.609,19.609,-19.609,0.0007,-0.0027,0.0057,-0.003,-0.04,-0.099
1701527302.569,19.609,19.609,-19.609,0.0068000000000000005,-0.0012000000000000001,-0.0009000000000000001,-0.006,-0.033,-0.1
1701527302.609,19.609,19.609,-19.609,0.0017000000000000001,-0.00030000000000000003,-0.0033,-0.002,-0.029,-0.099
1701527302.649,19.609,19.609,-19.609,-0.0006000000000000001,0.0015,-0.0053,0.003,-0.023,-0.10400000000000001
1701527302.689,19.609,19.609,-19.609,0.0053,0.0033,-0.0037,0.004,-0.031,-0.10200000000000001
1701527302.729,19.609,19.609,-19.609,0.0009000000000000001,0.0002,-0.0001,-0.003,-0.036000000000000004,-0.096
1701527302.769,19.609,19.609,-19.609,0.0004,-0.001,-0.002,0.003,-0.027,-0.083
1701527302.809,19.609,19.609,-19.609,0.0019,-0.0008,-0.0057,0.008,-0.038,-0.106
1701527302.849,19.609,19.609,-19.609,0.00030000000000000003,-0.0029000000000000002,-0.0054,0.002,-0.026000000000000002,-0.107
1701527302.889,19.609,19.609,-19.609,0.0015,-0.001,0.0092,-0.004,-0.026000000000000002,-0.109
1701527302.929,19.609,19.609,-19.609,-0.001,-0.0004,-0.004200000000000001,-0.02,-0.022,-0.093
1701527302.969,19.609,19.609,-19.609,0.0018000000000000002,-0.0018000000000000002,-0.005,-0.021,-0.026000000000000002,-0.091
1701527303.009,19.609,19.609,-19.609,-0.00030000000000000003,-0.00030000000000000003,-0.005200000000000001,0.007,-0.042,-0.10300000000000001
1701527303.049,19.609,19.609,-19.609,-0.0004,-0.0027,0.011000000000000001,0.015,-0.043000000000000003,-0.105
1701527303.089,19.609,19.609,-19.609,0.0011,-0.0022,-0.0001,0.005,-0.047,-0.10200000000000001
1701527303.129,19.609,19.609,-19.609,0.002,-0.001,-0.004,-0.001,-0.031,-0.097
1701527303.169,19.609,19.609,-19.609,0.0012000000000000001,-0.0021000000000000003,0.0119,0.0,-0.025,-0.10300000000000001
1701527303.209,19.609,19.609,-19.609,0.0013000000000000002,-0.0004,-0.0092,-0.005,-0.025,-0.095
1701527303.249,19.609,19.609,-19.609,0.0014,-0.0017000000000000001,-0.0051,-0.009000000000000001,-0.026000000000000002,-0.094
1701527303.289,19.609,19.609,-19.609,0.0016,-0.0007,-0.0006000000000000001,0.002,-0.036000000000000004,-0.101
1701527303.329,19.609,19.609,-19.609,0.0023,0.0014,-0.0078000000000000005,0.014,-0.038,-0.106
1701527303.369,19.609,19.609,-19.609,0.0002,-0.00030000000000000003,-0.005,0.0,-0.038,-0.098
1701527303.409,19.609,19.609,-19.609,-0.0006000000000000001,-0.0031000000000000003,0.0015,-0.001,-0.041,-0.10200000000000001
1701527303.449,19.609,19.609,-19.609,0.0026000000000000003,0.0007,-0.0034000000000000002,-0.001,-0.047,-0.10200000000000001
1701527303.4889998,19.609,19.609,-19.609,-0.0021000000000000003,-0.0009000000000000001,0.0019,0.0,-0.044,-0.105
1701527303.529,19.609,19.609,-19.609,0.0006000000000000001,-0.0007,-0.0034000000000000002,0.0,-0.045,-0.101
1701527303.569,19.609,19.609,-19.609,0.0012000000000000001,-0.0006000000000000001,0.0019,0.005,-0.008,-0.099
1701527303.609,19.609,19.609,-19.609,-0.0009000000000000001,-0.00030000000000000003,0.0001,0.004,-0.037,-0.113
1701527303.649,19.609,19.609,-19.609,0.0009000000000000001,0.0001,-0.0061,0.0,-0.039,-0.10300000000000001
1701527303.689,19.609,19.609,-19.609,0.0004,-0.0005,-0.0051,-0.01,-0.063,-0.10400000000000001
1701527303.7289999,19.609,19.609,-19.609,0.0014,0.0005,-0.0034000000000000002,-0.015,-0.046,-0.107
1701527303.769,19.609,19.609,-19.609,0.0014,0.00030000000000000003,0.0061,0.001,-0.049,-0.116
1701527303.809,19.609,19.609,-19.609,0.002,0.0002,-0.0086,-0.011,-0.043000000000000003,-0.111
1701527303.849,19.609,19.609,-19.609,0.0018000000000000002,0.0006000000000000001,-0.0006000000000000001,-0.008,-0.011,-0.113
1701527303.889,19.609,19.609,-19.609,-0.0006000000000000001,-0.0012000000000000001,-0.0025,-0.018000000000000002,-0.047,-0.097
1701527303.929,19.609,19.609,-19.609,0.0022,-0.0023,-0.0009000000000000001,-0.025,-0.046,-0.10200000000000001
1701527303.9689999,19.609,19.609,-19.609,0.0051,0.0014,-0.0046,-0.007,-0.051000000000000004,-0.115
1701527304.009,19.609,19.609,-19.609,0.0024000000000000002,-0.0004,-0.0046,0.001,-0.062,-0.115
1701527304.049,19.609,19.609,-19.609,0.0016,-0.0023,-0.0031000000000000003,0.009000000000000001,-0.052000000000000005,-0.10300000000000001
1701527304.089,19.609,19.609,-19.609,0.0004,-0.0027,0.0016,-0.01,-0.041,-0.096
1701527304.129,19.609,19.609,-19.609,0.0011,-0.002,-0.0106,-0.016,-0.026000000000000002,-0.106
1701527304.169,19.609,19.609,-19.609,-0.0004,0.0,-0.0095,-0.007,-0.022,-0.1
1701527304.2089999,19.609,19.609,-19.609,0.0014,-0.0007,0.017,-0.007,-0.027,-0.096
1701527304.249,19.609,19.609,-19.609,0.00030000000000000003,0.0,0.0017000000000000001,-0.001,-0.032,-0.1
1701527304.289,19.609,19.609,-19.609,-0.0002,-0.0001,0.0015,0.009000000000000001,-0.036000000000000004,-0.107
1701527304.329,19.609,19.609,-19.609,-0.0013000000000000002,0.0009000000000000001,0.0034000000000000002,-0.002,-0.032,-0.105
1701527304.369,19.609,19.609,-19.609,0.0025,-0.0002,-0.0017000000000000001,-0.013000000000000001,-0.033,-0.10400000000000001
1701527304.409,19.609,19.609,-19.609,0.0002,-0.0004,0.0015,-0.012,-0.042,-0.105
1701527304.449,19.609,19.609,-19.609,0.0016,-0.0006000000000000001,-0.0086,-0.014,-0.04,-0.11
1701527304.489,19.609,19.609,-19.609,0.0012000000000000001,0.0,0.0031000000000000003,-0.005,-0.047,-0.10300000000000001
1701527304.529,19.609,19.609,-19.609,0.0045000000000000005,0.0,-0.006200000000000001,0.0,-0.043000000000000003,-0.108
1701527304.569,19.609,19.609,-19.609,0.00030000000000000003,0.0031000000000000003,0.0006000000000000001,-0.002,-0.044,-0.109
1701527304.609,19.609,19.609,-19.609,0.0008,-0.0022,0.0049,-0.002,-0.047,-0.10200000000000001
1701527304.649,19.609,19.609,-19.609,0.0012000000000000001,0.0006000000000000001,-0.0043,0.0,-0.051000000000000004,-0.099
1701527304.689,19.609,19.609,-19.609,0.00030000000000000003,-0.0004,-0.0033,0.0,-0.045,-0.105
1701527304.729,19.609,19.609,-19.609,0.0001,-0.004,-0.0002,0.007,-0.042,-0.099
1701527304.769,19.609,19.609,-19.609,0.0007,-0.0012000000000000001,-0.0018000000000000002,-0.001,-0.036000000000000004,-0.109
1701527304.809,19.609,19.609,-19.609,0.0022,-0.0028,-0.00030000000000000003,-0.007,-0.022,-0.106
1701527304.849,19.609,19.609,-19.609,-0.0005,-0.0015,0.0007,-0.008,-0.028,-0.1
1701527304.889,19.609,19.609,-19.609,0.0006000000000000001,-0.0015,-0.0021000000000000003,-0.005,-0.038,-0.093
1701527304.929,19.609,19.609,-19.609,0.0019,-0.00030000000000000003,0.0015,0.009000000000000001,-0.04,-0.106
1701527304.969,19.609,19.609,-19.609,0.0006000000000000001,-0.0012000000000000001,0.0103,0.022,-0.054,-0.134
1701527305.009,19.609,19.609,-19.609,0.0017000000000000001,0.0009000000000000001,-0.0009000000000000001,0.018000000000000002,-0.051000000000000004,-0.112
1701527305.049,19.609,19.609,-19.609,0.0004,-0.00030000000000000003,-0.0076,-0.007,-0.04,-0.105
1701527305.089,19.609,19.609,-19.609,0.0021000000000000003,-0.00030000000000000003,-0.0055000000000000005,-0.018000000000000002,-0.029,-0.107
1701527305.129,19.609,19.609,-19.609,0.004,0.0007,-0.0012000000000000001,-0.012,-0.031,-0.12
1701527305.169,19.609,19.609,-19.609,-0.0018000000000000002,-0.0012000000000000001,-0.0011,-0.016,-0.037,-0.11
1701527305.209,19.609,19.609,-19.609,0.0011,-0.0009000000000000001,0.0098,-0.01,-0.046,-0.10300000000000001
1701527305.249,19.609,19.609,-19.609,0.0045000000000000005,0.0007,0.0027,0.0,-0.049,-0.10400000000000001
1701527305.289,19.609,19.609,-19.609,0.0006000000000000001,-0.001,-0.0097,0.004,-0.047,-0.106
1701527305.329,19.609,19.609,-19.609,0.0009000000000000001,-0.001,0.0036000000000000003,-0.005,-0.043000000000000003,-0.10200000000000001
1701527305.369,19.609,19.609,-19.609,0.0021000000000000003,0.00030000000000000003,0.0051,-0.009000000000000001,-0.045,-0.113
1701527305.409,19.609,19.609,-19.609,0.0007,0.00030000000000000003,-0.0017000000000000001,-0.005,-0.034,-0.105
1701527305.449,19.609,19.609,-19.609,0.0025,0.0013000000000000002,0.0081,0.003,-0.033,-0.10400000000000001
1701527305.4889998,19.609,19.609,-19.609,0.0,0.00030000000000000003,0.0051,0.0,-0.023,-0.095
1701527305.529,19.609,19.609,-19.609,0.0,-0.0001,-0.006200000000000001,0.005,-0.024,-0.10400000000000001
1701527305.569,19.609,19.609,-19.609,0.0024000000000000002,0.0009000000000000001,-0.0038,0.005,-0.019,-0.097
1701527305.609,19.609,19.609,-19.609,-0.0006000000000000001,-0.00030000000000000003,-0.0004,0.002,-0.025,-0.093
1701527305.649,19.609,19.609,-19.609,0.0017000000000000001,-0.0009000000000000001,-0.0049,0.0,-0.027,-0.093
1701527305.689,19.609,19.609,-19.609,0.003,0.0005,0.0043,0.008,-0.013000000000000001,-0.088
1701527305.7289999,19.609,19.609,-19.609,0.0037,-0.0005,0.001,0.017,-0.026000000000000002,-0.101
1701527305.769,19.609,19.609,-19.609,0.0029000000000000002,0.001,0.0019,0.003,-0.027,-0.101
1701527305.809,19.609,19.609,-19.609,0.0034000000000000002,-0.0015,-0.0074,-0.013000000000000001,-0.025,-0.088
1701527305.849,19.609,19.609,-19.609,0.0018000000000000002,-0.0021000000000000003,0.0057,-0.015,-0.025,-0.089
1701527305.889,19.609,19.609,-19.609,0.0031000000000000003,-0.0006000000000000001,0.0085,0.003,-0.034,-0.094
1701527305.929,19.609,19.609,-19.609,-0.001,-0.0006000000000000001,-0.0059,0.01,-0.039,-0.108
1701527305.9689999,19.609,19.609,-19.609,0.0012000000000000001,0.0008,-0.006200000000000001,0.003,-0.046,-0.093
1701527306.009,19.609,19.609,-19.609,0.0026000000000000003,-0.0005,-0.0004,-0.005,-0.034,-0.096
1701527306.049,19.609,19.609,-19.609,0.0006000000000000001,-0.0011,0.0018000000000000002,-0.012,-0.028,-0.10400000000000001
1701527306.089,19.609,19.609,-19.609,0.0029000000000000002,0.0012000000000000001,-0.0132,-0.004,-0.024,-0.108
1701527306.129,19.609,19.609,-19.609,0.0045000000000000005,-0.0002,0.0092,-0.013000000000000001,-0.027,-0.096
1701527306.169,19.609,19.609,-19.609,-0.0006000000000000001,-0.0045000000000000005,-0.0013000000000000002,-0.008,-0.032,-0.095
1701527306.2089999,19.609,19.609,-19.609,0.0021000000000000003,0.0004,0.0009000000000000001,0.005,-0.038,-0.10200000000000001
1701527306.249,19.609,19.609,-19.609,0.0006000000000000001,-0.0013000000000000002,0.0045000000000000005,0.008,-0.034,-0.10300000000000001
1701527306.289,19.609,19.609,-19.609,0.0008,-0.0005,0.0067,-0.009000000000000001,-0.043000000000000003,-0.101
1701527306.329,19.609,19.609,-19.609,0.0006000000000000001,-0.0009000000000000001,0.0064,-0.012,-0.041,-0.097
1701527306.369,19.609,19.609,-19.609,0.0009000000000000001,0.0001,-0.0017000000000000001,-0.005,-0.039,-0.113
1701527306.409,19.609,19.609,-19.609,0.0012000000000000001,-0.0006000000000000001,-0.0111,0.001,-0.049,-0.107
1701527306.449,19.609,19.609,-19.609,-0.0018000000000000002,-0.0009000000000000001,0.015700000000000002,-0.003,-0.041,-0.098
1701527306.489,19.609,19.609,-19.609,0.0025,-0.0002,0.012100000000000001,0.0,-0.038,-0.099
1701527306.529,19.609,19.609,-19.609,0.0025,-0.0013000000000000002,0.0026000000000000003,0.002,-0.042,-0.109
1701527306.569,19.609,19.609,-19.609,0.0001,-0.0021000000000000003,-0.0082,0.002,-0.038,-0.11
1701527306.609,19.609,19.609,-19.609,0.0006000000000000001,0.0001,0.0006000000000000001,0.0,-0.038,-0.101
1701527306.649,19.609,19.609,-19.609,0.0007,-0.0006000000000000001,0.0032,0.003,-0.039,-0.096
1701527306.689,19.609,19.609,-19.609,0.0014,-0.00030000000000000003,-0.0007,0.002,-0.034,-0.096
1701527306.729,19.609,19.609,-19.609,0.001,-0.0001,0.004,0.003,-0.051000000000000004,-0.114
1701527306.769,19.609,19.609,-19.609,-0.0001,0.0001,0.00030000000000000003,-0.002,-0.05,-0.115
1701527306.809,19.609,19.609,-19.609,0.0019,0.001,0.006,-0.015,-0.045,-0.115
1701527306.849,19.609,19.609,-19.609,0.0006000000000000001,-0.0006000000000000001,-0.0004,-0.027,-0.049,-0.101
1701527306.889,19.609,19.609,-19.609,0.0017000000000000001,0.0001,0.0031000000000000003,-0.014,-0.047,-0.10400000000000001
1701527306.929,19.609,19.609,-19.609,-0.0016,0.00030000000000000003,-0.014700000000000001,0.011,-0.065,-0.113
1701527306.969,19.609,19.609,-19.609,0.0026000000000000003,0.0002,0.0037,-0.004,-0.061,-0.107
1701527307.009,19.609,19.609,-19.609,0.0005,-0.0024000000000000002,-0.0064,-0.005,-0.058,-0.101
1701527307.049,19.609,19.609,-19.609,0.0008,-0.0007,-0.0046,0.0,-0.038,-0.10300000000000001
1701527307.089,19.609,19.609,-19.609,0.0,0.0004,-0.0057,-0.001,-0.033,-0.10400000000000001
1701527307.129,19.609,19.609,-19.609,-0.00030000000000000003,-0.002,0.0036000000000000003,-0.007,-0.019,-0.098
1701527307.169,19.609,19.609,-19.609,0.001,-0.0001,0.0001,-0.006,-0.029,-0.095
1701527307.209,19.609,19.609,-19.609,0.0007,0.0001,-0.004,0.001,-0.034,-0.10400000000000001
1701527307.249,19.609,19.609,-19.609,0.0017000000000000001,-0.0019,0.0037,-0.001,-0.029,-0.107
1701527307.289,19.609,19.609,-19.609,-0.0006000000000000001,0.0,-0.0061,-0.002,-0.032,-0.106
1701527307.329,19.609,19.609,-19.609,0.0014,-0.0032,0.0026000000000000003,0.003,-0.032,-0.107
1701527307.369,19.609,19.609,-19.609,0.00030000000000000003,-0.0006000000000000001,-0.0044,-0.007,-0.037,-0.10400000000000001
1701527307.409,19.609,19.609,-19.609,0.0008,-0.00030000000000000003,0.0002,-0.007,-0.039,-0.105
1701527307.449,19.609,19.609,-19.609,-0.0004,-0.0037,-0.001,-0.006,-0.034,-0.099
1701527307.4889998,19.609,19.609,-19.609,0.0035,-0.0014,0.0001,-0.001,-0.033,-0.101
1701527307.529,19.609,19.609,-19.609,0.0002,-0.0018000000000000002,-0.013300000000000001,-0.008,-0.031,-0.105
1701527307.569,19.609,19.609,-19.609,0.0017000000000000001,-0.0001,-0.0026000000000000003,-0.016,-0.043000000000000003,-0.10400000000000001
1701527307.609,19.609,19.609,-19.609,0.0002,-0.0009000000000000001,-0.0002,-0.003,-0.042,-0.10300000000000001
1701527307.649,19.609,19.609,-19.609,0.0026000000000000003,0.001,0.0014,-0.003,-0.041,-0.099
1701527307.689,19.609,19.609,-19.609,-0.0001,-0.0006000000000000001,-0.0021000000000000003,-0.004,-0.037,-0.098
1701527307.7289999,19.609,19.609,-19.609,-0.0023,-0.0028,-0.0021000000000000003,-0.009000000000000001,-0.038,-0.11
1701527307.769,19.609,19.609,-19.609,-0.0007,0.0001,-0.0059,-0.007,-0.029,-0.11
1701527307.809,19.609,19.609,-19.609,-0.0002,0.0,0.0007,-0.019,-0.023,-0.1
1701527307.849,19.609,19.609,-19.609,0.002,-0.0027,0.004,-0.003,-0.038,-0.094
1701527307.889,19.609,19.609,-19.609,0.0031000000000000003,0.0007,-0.001,0.007,-0.04,-0.101
1701527307.929,19.609,19.609,-19.609,0.0029000000000000002,-0.0011,-0.0076,0.021,-0.045,-0.114
1701527307.9689999,19.609,19.609,-19.609,0.0016,0.0005,0.008700000000000001,0.014,-0.045,-0.106
1701527308.009,19.609,19.609,-19.609,0.004200000000000001,0.0,-0.027700000000000002,-0.006,-0.045,-0.111
1701527308.049,19.609,19.609,-19.609,0.0014,-0.0025,0.0111,-0.014,-0.029,-0.107
1701527308.089,19.609,19.609,-19.609,0.0001,-0.0016,-0.0001,-0.011,-0.026000000000000002,-0.10300000000000001
1701527308.129,19.609,19.609,-19.609,0.0,0.0,0.0053,-0.021,-0.022,-0.108
1701527308.169,19.609,19.609,-19.609,-0.00030000000000000003,0.001,0.0,-0.013000000000000001,-0.025,-0.10200000000000001
1701527308.2089999,19.609,19.609,-19.609,0.0017000000000000001,0.001,0.0043,-0.008,-0.031,-0.106
1701527308.249,19.609,19.609,-19.609,0.0037,0.0012000000000000001,-0.006900000000000001,-0.001,-0.035,-0.105
1701527308.289,19.609,19.609,-19.609,0.001,-0.001,-0.0184,-0.004,-0.026000000000000002,-0.098
1701527308.329,19.609,19.609,-19.609,0.0034000000000000002,0.0012000000000000001,0.008700000000000001,-0.008,-0.029,-0.097
1701527308.369,19.609,19.609,-19.609,-0.0004,-0.0007,-0.007200000000000001,-0.015,-0.025,-0.101
1701527308.409,19.609,19.609,-19.609,-0.002,0.0008,-0.0031000000000000003,-0.007,-0.026000000000000002,-0.10200000000000001
1701527308.449,19.609,19.609,-19.609,0.0013000000000000002,0.0001,0.009300000000000001,-0.006,-0.023,-0.098
1701527308.489,19.609,19.609,-19.609,0.002,-0.0017000000000000001,0.0063,0.0,-0.018000000000000002,-0.101
1701527308.529,19.609,19.609,-19.609,0.0014,0.0001,-0.0011,0.007,-0.023,-0.097
1701527308.569,19.609,19.609,-19.609,0.0006000000000000001,-0.0005,-0.0045000000000000005,0.004,-0.027,-0.09
1701527308.609,19.609,19.609,-19.609,0.0029000000000000002,-0.0008,-0.0018000000000000002,0.004,-0.029,-0.091
1701527308.649,19.609,19.609,-19.609,0.0025,-0.0004,-0.0103,0.012,-0.023,-0.083
1701527308.689,19.609,19.609,-19.609,0.002,-0.0021000000000000003,0.0017000000000000001,0.02,-0.027,-0.097
1701527308.729,19.609,19.609,-19.609,-0.002,-0.0013000000000000002,0.0034000000000000002,0.013000000000000001,-0.039,-0.10300000000000001
1701527308.769,19.609,19.609,-19.609,0.0005,-0.00030000000000000003,0.0007,0.0,-0.029,-0.106
1701527308.809,19.609,19.609,-19.609,-0.00030000000000000003,-0.0009000000000000001,-0.0039000000000000003,-0.016,-0.031,-0.08700000000000001
1701527308.849,19.609,19.609,-19.609,0.0026000000000000003,0.0015,0.0032,-0.012,-0.041,-0.092
1701527308.889,19.609,19.609,-19.609,-0.00030000000000000003,-0.0009000000000000001,0.007500000000000001,0.001,-0.045,-0.10300000000000001
1701527308.929,19.609,19.609,-19.609,0.002,-0.0018000000000000002,-0.0009000000000000001,0.002,-0.052000000000000005,-0.115
1701527308.969,19.609,19.609,-19.609,0.0014,0.0006000000000000001,-0.0025,0.0,-0.051000000000000004,-0.098
1701527309.009,19.609,19.609,-19.609,0.0004,0.0008,-0.0102,-0.002,-0.007,-0.109
1701527309.049,19.609,19.609,-19.609,0.0021000000000000003,-0.0004,-0.0012000000000000001,-0.006,-0.033,-0.105
1701527309.089,19.609,19.609,-19.609,0.0006000000000000001,0.0,0.0059,-0.011,-0.031,-0.11
1701527309.129,19.609,19.609,-19.609,-0.0018000000000000002,-0.0015,0.0021000000000000003,-0.018000000000000002,-0.053,-0.1
1701527309.169,19.609,19.609,-19.609,0.0014,-0.00030000000000000003,0.0051,0.001,-0.038,-0.107
1701527309.209,19.609,19.609,-19.609,0.0023,-0.0021000000000000003,-0.0029000000000000002,0.011,-0.037,-0.112
1701527309.249,19.609,19.609,-19.609,0.004200000000000001,0.0007,-0.006500000000000001,-0.007,-0.038,-0.101
1701527309.289,19.609,19.609,-19.609,-0.0012000000000000001,-0.0001,-0.003,0.03,-0.048,-0.10200000000000001
1701527309.329,19.609,19.609,-19.609,0.0015,-0.0009000000000000001,0.0012000000000000001,-0.002,-0.053,-0.10300000000000001
1701527309.369,19.609,19.609,-19.609,0.0019,-0.004200000000000001,-0.0004,0.005,-0.041,-0.107
1701527309.409,19.609,19.609,-19.609,-0.0001,-0.0004,-0.0036000000000000003,0.0,-0.04,-0.10300000000000001
1701527309.449,19.609,19.609,-19.609,0.0009000000000000001,-0.0009000000000000001,0.0049,0.001,-0.043000000000000003,-0.105
1701527309.4889998,19.609,19.609,-19.609,0.0008,0.0,-0.002,0.0,-0.043000000000000003,-0.10400000000000001
1701527309.529,19.609,19.609,-19.609,-0.0025,-0.0029000000000000002,0.0114,0.0,-0.037,-0.101
1701527309.569,19.609,19.609,-19.609,-0.00030000000000000003,0.0006000000000000001,-0.011600000000000001,-0.008,-0.038,-0.107
1701527309.609,19.609,19.609,-19.609,-0.0008,-0.0009000000000000001,-0.0054,-0.007,-0.036000000000000004,-0.105
1701527309.649,19.609,19.609,-19.609,0.0006000000000000001,-0.0009000000000000001,0.0018000000000000002,-0.008,-0.039,-0.094
1701527309.689,19.609,19.609,-19.609,-0.0008,0.0015,0.0043,-0.003,-0.044,-0.10300000000000001
1701527309.7289999,19.609,19.609,-19.609,0.0008,0.0002,-0.0083,0.005,-0.048,-0.109
1701527309.769,19.609,19.609,-19.609,0.0011,-0.0023,-0.0016,0.006,-0.036000000000000004,-0.10400000000000001
1701527309.809,19.609,19.609,-19.609,0.0034000000000000002,-0.0018000000000000002,0.0092,-0.008,-0.034,-0.10200000000000001
1701527309.849,19.609,19.609,-19.609,-0.0006000000000000001,-0.0006000000000000001,-0.0044,-0.019,-0.032,-0.09
1701527309.889,19.609,19.609,-19.609,0.0017000000000000001,-0.0007,0.0001,-0.012,-0.029,-0.1
1701527309.929,19.609,19.609,-19.609,0.0,-0.0002,0.0,0.007,-0.038,-0.111
1701527309.9689999,19.609,19.609,-19.609,0.0026000000000000003,-0.0017000000000000001,-0.0006000000000000001,0.021,-0.054,-0.12
1701527310.009,19.609,19.609,-19.609,0.0017000000000000001,-0.0009000000000000001,0.009000000000000001,0.005,-0.053,-0.097
1701527310.049,19.609,19.609,-19.609,-0.0045000000000000005,0.0007,0.0054,-0.007,-0.039,-0.096
1701527310.089,19.609,19.609,-19.609,0.0023,-0.0017000000000000001,-0.0024000000000000002,-0.013000000000000001,-0.029,-0.111
1701527310.129,19.609,19.609,-19.609,0.001,0.0013000000000000002,-0.008400000000000001,-0.013000000000000001,-0.036000000000000004,-0.114
1701527310.169,19.609,19.609,-19.609,0.0018000000000000002,0.0016,-0.0059,-0.014,-0.041,-0.10200000000000001
1701527310.2089999,19.609,19.609,-19.609,0.0007,-0.0007,0.0045000000000000005,-0.01,-0.041,-0.10200000000000001
1701527310.249,19.609,19.609,-19.609,0.0014,-0.0033,0.001,0.0,-0.046,-0.121
1701527310.289,19.609,19.609,-19.609,0.001,-0.0005,-0.006200000000000001,-0.003,-0.049,-0.109
1701527310.329,19.609,19.609,-19.609,-0.00030000000000000003,0.00030000000000000003,-0.005,-0.009000000000000001,-0.052000000000000005,-0.1
1701527310.369,19.609,19.609,-19.609,-0.0012000000000000001,-0.0024000000000000002,-0.0125,-0.021,-0.045,-0.10200000000000001
1701527310.409,19.609,19.609,-19.609,-0.0009000000000000001,-0.0006000000000000001,0.0036000000000000003,-0.014,-0.048,-0.111
1701527310.449,19.609,19.609,-19.609,0.0023,-0.0035,0.0059,-0.003,-0.054,-0.113
1701527310.489,19.609,19.609,-19.609,0.0017000000000000001,-0.0005,-0.00030000000000000003,-0.007,-0.067,-0.101
1701527310.529,19.609,19.609,-19.609,0.0028,-0.0013000000000000002,-0.006200000000000001,-0.008,-0.046,-0.11
1701527310.569,19.609,19.609,-19.609,0.0016,-0.0011,-0.0108,0.0,-0.043000000000000003,-0.11
1701527310.609,19.609,19.609,-19.609,-0.0013000000000000002,0.0008,0.0241,-0.011,-0.038,-0.10200000000000001
1701527310.649,19.609,19.609,-19.609,0.0006000000000000001,0.0006000000000000001,-0.0109,-0.012,-0.039,-0.094
1701527310.689,19.609,19.609,-19.609,0.0034000000000000002,0.0,-0.012400000000000001,0.0,-0.041,-0.106
1701527310.729,19.609,19.609,-19.609,0.0004,0.0004,0.0016,-0.007,-0.039,-0.105
1701527310.769,19.609,19.609,-19.609,0.0006000000000000001,-0.0007,-0.013000000000000001,0.0,-0.036000000000000004,-0.101
1701527310.809,19.609,19.609,-19.609,-0.0037,0.0008,0.0048000000000000004,-0.012,-0.03,-0.10400000000000001
1701527310.849,19.609,19.609,-19.609,0.0019,-0.0007,0.0029000000000000002,-0.01,-0.029,-0.108
1701527310.889,19.609,19.609,-19.609,0.0012000000000000001,-0.0002,-0.008,-0.016,-0.011,-0.1
1701527310.929,19.609,19.609,-19.609,-0.0015,0.0,-0.0006000000000000001,-0.02,-0.028,-0.091
1701527310.969,19.609,19.609,-19.609,0.0011,-0.0023,0.0048000000000000004,0.001,-0.042,-0.10400000000000001
1701527311.009,19.609,19.609,-19.609,0.0018000000000000002,0.0,0.0128,0.014,-0.053,-0.112
1701527311.049,19.609,19.609,-19.609,-0.0004,0.0006000000000000001,-0.007200000000000001,0.013000000000000001,-0.056,-0.108
1701527311.089,19.609,19.609,-19.609,-0.0008,0.0012000000000000001,0.0023,0.006,-0.058,-0.107
1701527311.129,19.609,19.609,-19.609,0.0006000000000000001,-0.0025,0.0014,-0.002,-0.034,-0.107
1701527311.169,19.609,19.609,-19.609,0.0024000000000000002,-0.001,-0.0102,-0.037,-0.023,-0.10400000000000001
1701527311.209,19.609,19.609,-19.609,-0.0006000000000000001,-0.0001,0.009300000000000001,0.003,-0.03,-0.107
1701527311.249,19.609,19.609,-19.609,0.0009000000000000001,-0.0023,-0.0045000000000000005,0.0,-0.042,-0.109
1701527311.289,19.609,19.609,-19.609,0.0,0.0,0.0028,0.009000000000000001,-0.041,-0.117
1701527311.329,19.609,19.609,-19.609,0.0012000000000000001,-0.0009000000000000001,-0.0019,-0.005,-0.038,-0.115
1701527311.369,19.609,19.609,-19.609,0.0023,0.001,0.0112,-0.018000000000000002,-0.04,-0.11800000000000001
1701527311.409,19.609,19.609,-19.609,-0.0008,0.001,-0.012700000000000001,-0.02,-0.046,-0.11800000000000001
1701527311.449,19.609,19.609,-19.609,0.0008,0.0006000000000000001,-0.0018000000000000002,-0.017,-0.044,-0.12
1701527311.4889998,19.609,19.609,-19.609,0.002,-0.0027,-0.006200000000000001,-0.019,-0.041,-0.112
1701527311.529,19.609,19.609,-19.609,0.0012000000000000001,-0.0024000000000000002,0.0031000000000000003,-0.018000000000000002,-0.04,-0.11
1701527311.569,19.609,19.609,-19.609,0.0015,-0.0007,-0.0076,-0.008,-0.034,-0.117
1701527311.609,19.609,19.609,-19.609,0.0026000000000000003,-0.0006000000000000001,0.0015,-0.005,-0.04,-0.117
1701527311.649,19.609,19.609,-19.609,0.0,0.0004,0.0031000000000000003,-0.012,-0.033,-0.112
1701527311.689,19.609,19.609,-19.609,0.0021000000000000003,-0.0051,0.0023,-0.013000000000000001,-0.043000000000000003,-0.106
1701527311.7289999,19.609,19.609,-19.609,0.0049,-0.0006000000000000001,0.0014,-0.01,-0.049,-0.106
1701527311.769,19.609,19.609,-19.609,0.004200000000000001,0.0,0.005,-0.003,-0.041,-0.096
1701527311.809,19.609,19.609,-19.609,0.0025,-0.0007,-0.0102,0.005,-0.035,-0.105
1701527311.849,19.609,19.609,-19.609,0.0021000000000000003,-0.0014,0.0051,0.003,-0.037,-0.109
1701527311.889,19.609,19.609,-19.609,0.0006000000000000001,0.0004,-0.0006000000000000001,-0.005,-0.032,-0.096
1701527311.929,19.609,19.609,-19.609,0.0037,0.0014,-0.0009000000000000001,-0.004,-0.032,-0.088
1701527311.9689999,19.609,19.609,-19.609,0.0034000000000000002,-0.0006000000000000001,-0.004200000000000001,0.011,-0.03,-0.093
1701527312.009,19.609,19.609,-19.609,-0.0002,0.0012000000000000001,-0.008,0.024,-0.043000000000000003,-0.115
1701527312.049,19.609,19.609,-19.609,0.0001,0.0005,-0.0023,0.01,-0.041,-0.094
1701527312.089,19.609,19.609,-19.609,0.0006000000000000001,0.0006000000000000001,-0.00030000000000000003,-0.006,-0.041,-0.097
1701527312.129,19.609,19.609,-19.609,0.0031000000000000003,-0.0024000000000000002,-0.0024000000000000002,-0.018000000000000002,-0.015,-0.1
1701527312.169,19.609,19.609,-19.609,0.0018000000000000002,-0.0034000000000000002,0.0122,-0.005,-0.016,-0.10400000000000001
1701527312.2089999,19.609,19.609,-19.609,0.0005,-0.0006000000000000001,0.0031000000000000003,-0.014,-0.004,-0.092
1701527312.249,19.609,19.609,-19.609,0.0022,-0.0012000000000000001,-0.0105,-0.008,-0.016,-0.093
1701527312.289,19.609,19.609,-19.609,-0.0011,0.0,0.0076,0.001,-0.029,-0.094
1701527312.329,19.609,19.609,-19.609,0.001,0.0015,0.003,0.0,-0.026000000000000002,-0.1
1701527312.369,19.609,19.609,-19.609,0.002,-0.0017000000000000001,0.0009000000000000001,-0.006,-0.036000000000000004,-0.095
1701527312.409,19.609,19.609,-19.609,0.0032,-0.0017000000000000001,-0.0126,-0.004,-0.03,-0.08700000000000001
1701527312.449,19.609,19.609,-19.609,-0.0007,-0.002,0.015300000000000001,-0.013000000000000001,-0.037,-0.093
1701527312.489,19.609,19.609,-19.609,-0.0009000000000000001,0.0013000000000000002,-0.004,0.008,-0.034,-0.098
1701527312.529,19.609,19.609,-19.609,0.0006000000000000001,-0.0012000000000000001,-0.0078000000000000005,0.004,-0.035,-0.093
1701527312.569,19.609,19.609,-19.609,0.0014,-0.0005,-0.0082,-0.003,-0.036000000000000004,-0.093
1701527312.609,19.609,19.609,-19.609,0.0025,0.0006000000000000001,-0.00030000000000000003,0.008,-0.036000000000000004,-0.093
1701527312.649,19.609,19.609,-19.609,0.0004,0.0007,-0.0031000000000000003,0.015,-0.035,-0.096
1701527312.689,19.609,19.609,-19.609,-0.0015,-0.0012000000000000001,0.00030000000000000003,0.006,-0.038,-0.093
1701527312.729,19.609,19.609,-19.609,0.0021000000000000003,-0.0023,-0.0004,-0.002,-0.041,-0.094
1701527312.769,19.609,19.609,-19.609,-0.0002,-0.0006000000000000001,-0.005,-0.005,-0.05,-0.091
1701527312.809,19.609,19.609,-19.609,0.0016,-0.0008,-0.0037,0.012,-0.044,-0.084
1701527312.849,19.609,19.609,-19.609,0.004200000000000001,-0.0007,0.0011,0.02,-0.034,-0.1
1701527312.889,19.609,19.609,-19.609,0.0034000000000000002,-0.00030000000000000003,-0.00030000000000000003,0.007,-0.04,-0.109
1701527312.929,19.609,19.609,-19.609,0.0014,0.0007,0.0,-0.008,-0.036000000000000004,-0.094
1701527312.969,19.609,19.609,-19.609,0.0028,0.0009000000000000001,0.005200000000000001,-0.02,-0.036000000000000004,-0.09
1701527313.009,19.609,19.609,-19.609,0.005,-0.0004,-0.0048000000000000004,-0.001,-0.036000000000000004,-0.106
1701527313.049,19.609,19.609,-19.609,0.0028,0.001,0.0,0.017,-0.049,-0.11
1701527313.089,19.609,19.609,-19.609,-0.0001,0.0002,-0.0021000000000000003,0.008,-0.052000000000000005,-0.10200000000000001
1701527313.129,19.609,19.609,-19.609,-0.0006000000000000001,0.0004,0.0012000000000000001,0.004,-0.052000000000000005,-0.096
1701527313.169,19.609,19.609,-19.609,-0.0007,-0.0012000000000000001,-0.0023,-0.01,-0.03,-0.10300000000000001
1701527313.209,19.609,19.609,-19.609,0.0009000000000000001,0.0007,-0.0037,0.0,-0.024,-0.10400000000000001
1701527313.249,19.609,19.609,-19.609,0.0014,0.0018000000000000002,0.0018000000000000002,0.0,-0.027,-0.095
1701527313.289,19.609,19.609,-19.609,-0.0004,-0.0006000000000000001,0.0015,0.0,-0.033,-0.1
1701527313.329,19.609,19.609,-19.609,0.0009000000000000001,-0.0016,0.0007,0.018000000000000002,-0.034,-0.105
1701527313.369,19.609,19.609,-19.609,0.0025,-0.00030000000000000003,0.0002,0.006,-0.041,-0.10300000000000001
1701527313.409,19.609,19.609,-19.609,0.0004,-0.0017000000000000001,-0.0026000000000000003,0.001,-0.043000000000000003,-0.10400000000000001
1701527313.449,19.609,19.609,-19.609,0.0008,-0.0026000000000000003,-0.007,-0.007,-0.051000000000000004,-0.11
1701527313.4889998,19.609,19.609,-19.609,-0.0004,0.0009000000000000001,0.0023,-0.005,-0.056,-0.12
1701527313.529,19.609,19.609,-19.609,0.0012000000000000001,-0.0008,-0.0035,-0.004,-0.05,-0.114
1701527313.569,19.609,19.609,-19.609,-0.0007,-0.0007,0.0034000000000000002,-0.011,-0.044,-0.107
1701527313.609,19.609,19.609,-19.609,-0.0021000000000000003,-0.0023,0.0125,-0.01,-0.041,-0.109
1701527313.649,19.609,19.609,-19.609,0.002,-0.0009000000000000001,0.0264,-0.008,-0.043000000000000003,-0.109
1701527313.689,19.609,19.609,-19.609,0.0015,-0.0018000000000000002,-0.0111,-0.007,-0.036000000000000004,-0.107
1701527313.7289999,19.609,19.609,-19.609,0.0004,-0.0009000000000000001,-0.024800000000000003,-0.005,-0.04,-0.11
1701527313.769,19.609,19.609,-19.609,-0.0017000000000000001,-0.0021000000000000003,0.0015,-0.014,-0.032,-0.11
1701527313.809,19.609,19.609,-19.609,-0.00030000000000000003,0.0012000000000000001,0.0058000000000000005,-0.005,-0.049,-0.107
1701527313.849,19.609,19.609,-19.609,0.0007,0.0,-0.0018000000000000002,-0.007,-0.053,-0.106
1701527313.889,19.609,19.609,-19.609,0.0015,-0.0045000000000000005,0.0048000000000000004,0.0,-0.047,-0.092
1701527313.929,19.609,19.609,-19.609,0.0029000000000000002,0.0,-0.0017000000000000001,0.01,-0.043000000000000003,-0.10400000000000001
1701527313.9689999,19.609,19.609,-19.609,0.0014,-0.0002,-0.0001,0.001,-0.034,-0.11
1701527314.009,19.609,19.609,-19.609,0.0019,-0.0006000000000000001,-0.0012000000000000001,-0.012,-0.027,-0.1
1701527314.049,19.609,19.609,-19.609,0.0023,-0.0004,-0.0092,-0.014,-0.033,-0.09
1701527314.089,19.609,19.609,-19.609,0.001,0.0004,0.0034000000000000002,0.007,-0.052000000000000005,-0.094
1701527314.129,19.609,19.609,-19.609,0.0019,-0.00030000000000000003,0.0023,0.021,-0.055,-0.108
1701527314.169,19.609,19.609,-19.609,0.0021000000000000003,-0.0005,0.0,0.014,-0.052000000000000005,-0.107
1701527314.2089999,19.609,19.609,-19.609,-0.0007,-0.0032,-0.0007,0.0,-0.053,-0.10200000000000001
1701527314.249,19.609,19.609,-19.609,0.0016,-0.0012000000000000001,-0.005,-0.018000000000000002,-0.031,-0.101
1701527314.289,19.609,19.609,-19.609,0.0067,0.0011,0.006500000000000001,-0.014,-0.021,-0.107
1701527314.329,19.609,19.609,-19.609,0.0009000000000000001,-0.0009000000000000001,-0.012,-0.009000000000000001,-0.024,-0.101
1701527314.369,19.609,19.609,-19.609,0.0023,-0.001,0.0001,-0.009000000000000001,-0.033,-0.1
1701527314.409,19.609,19.609,-19.609,-0.0007,-0.0018000000000000002,0.0,0.002,-0.04,-0.107
1701527314.449,19.609,19.609,-19.609,0.0008,0.00030000000000000003,-0.005,-0.002,-0.046,-0.111
1701527314.489,19.609,19.609,-19.609,-0.0019,-0.001,-0.0025,-0.002,-0.052000000000000005,-0.10300000000000001
1701527314.529,19.609,19.609,-19.609,0.0014,0.0001,0.001,-0.003,-0.054,-0.105
1701527314.569,19.609,19.609,-19.609,0.0001,-0.0006000000000000001,-0.00030000000000000003,-0.002,-0.052000000000000005,-0.113
1701527314.609,19.609,19.609,-19.609,0.0009000000000000001,0.001,-0.0106,0.016,-0.037,-0.117
1701527314.649,19.609,19.609,-19.609,0.0021000000000000003,0.0018000000000000002,0.0006000000000000001,-0.01,-0.032,-0.109
1701527314.689,19.609,19.609,-19.609,0.0021000000000000003,-0.00030000000000000003,-0.0044,-0.006,-0.037,-0.108
1701527314.729,19.609,19.609,-19.609,-0.0005,-0.0017000000000000001,0.0056,-0.07,0.041,-0.084
1701527314.769,19.609,19.609,-19.609,0.0025,-0.0016,-0.0037,-0.101,0.004,-0.116
1701527314.809,19.609,19.609,-19.609,0.0013000000000000002,-0.0012000000000000001,0.0021000000000000003,-0.063,-0.128,-0.111
1701527314.849,19.609,19.609,-19.609,0.0012000000000000001,-0.0006000000000000001,-0.0051,-0.07200000000000001,-0.203,-0.121
1701527314.889,19.609,19.609,-19.609,-0.00030000000000000003,-0.00030000000000000003,-0.0082,-0.09,-0.261,-0.10200000000000001
1701527314.929,19.609,19.609,-19.609,0.0006000000000000001,0.0009000000000000001,0.008400000000000001,-0.082,-0.301,-0.10200000000000001
1701527314.969,19.609,19.609,-19.609,0.0017000000000000001,-0.0013000000000000002,0.0058000000000000005,-0.057,-0.312,-0.128
1701527315.009,19.609,19.609,-19.609,0.001,-0.0022,-0.0012000000000000001,-0.004,-0.311,-0.155
1701527315.049,19.609,19.609,-19.609,0.0005,-0.0034000000000000002,-0.0049,0.016,-0.308,-0.155
1701527315.089,19.609,19.609,-19.609,0.002,-0.0006000000000000001,-0.0081,0.047,-0.28800000000000003,-0.14200000000000002
1701527315.129,19.609,19.609,-19.609,0.00030000000000000003,-0.0007,0.0004,0.08700000000000001,-0.259,-0.139
1701527315.169,19.609,19.609,-19.609,0.0002,-0.0006000000000000001,0.0018000000000000002,0.055,-0.20500000000000002,-0.128
1701527315.209,19.609,19.609,-19.609,0.0002,-0.0027,0.004200000000000001,0.058,-0.17200000000000001,-0.109
1701527315.249,19.609,19.609,-19.609,0.0023,-0.0004,-0.0045000000000000005,0.03,-0.098,-0.097
1701527315.289,19.609,19.609,-19.609,0.001,-0.0005,-0.0017000000000000001,0.018000000000000002,-0.045,-0.10400000000000001
1701527315.329,19.609,19.609,-19.609,0.0021000000000000003,-0.00030000000000000003,-0.0019,0.021,0.009000000000000001,-0.083
1701527315.369,19.609,19.609,-19.609,0.0041,-0.0012000000000000001,-0.0097,0.002,0.051000000000000004,-0.077
1701527315.409,19.609,19.609,-19.609,0.0014,-0.001,-0.0073,0.014,0.083,-0.08
1701527315.449,19.609,19.609,-19.609,0.0009000000000000001,0.0014,-0.0049,0.026000000000000002,0.111,-0.08700000000000001
1701527315.4889998,19.609,19.609,-19.609,0.0005,-0.0018000000000000002,0.0177,0.024,0.135,-0.083
1701527315.529,19.609,19.609,-19.609,-0.0007,-0.0025,0.0246,0.021,0.147,-0.08
1701527315.569,19.609,19.609,-19.609,0.0028,-0.0004,-0.008700000000000001,0.018000000000000002,0.161,-0.082
1701527315.609,19.609,19.609,-19.609,0.003,0.0,-0.0006000000000000001,0.014,0.182,-0.081
1701527315.649,19.609,19.609,-19.609,0.0014,-0.0034000000000000002,0.0017000000000000001,0.009000000000000001,0.183,-0.089
1701527315.689,19.609,19.609,-19.609,0.0007,-0.0017000000000000001,-0.0053,0.0,0.187,-0.088
1701527315.7289999,19.609,19.609,-19.609,0.0015,-0.00030000000000000003,0.0068000000000000005,-0.022,0.197,-0.07200000000000001
1701527315.769,19.609,19.609,-19.609,0.0007,-0.0012000000000000001,-0.0128,-0.034,0.176,-0.059000000000000004
1701527315.809,19.609,19.609,-19.609,-0.0002,0.0,0.0076,-0.05,0.147,-0.063
1701527315.849,19.609,19.609,-19.609,-0.0009000000000000001,0.0,-0.0048000000000000004,-0.06,0.128,-0.049
1701527315.889,19.609,19.609,-19.609,0.0025,-0.0015,-0.0017000000000000001,-0.054,0.10200000000000001,-0.053
1701527315.929,19.609,19.609,-19.609,0.0026000000000000003,-0.0001,0.0004,-0.049,0.076,-0.06
1701527315.9689999,19.609,19.609,-19.609,0.0009000000000000001,-0.002,-0.0037,-0.023,0.038,-0.068
1701527316.009,19.609,19.609,-19.609,0.0014,-0.0006000000000000001,0.0066,-0.008,0.022,-0.083
1701527316.049,19.609,19.609,-19.609,0.0024000000000000002,0.00030000000000000003,-0.005200000000000001,0.009000000000000001,-0.016,-0.10200000000000001
1701527316.089,19.609,19.609,-19.609,0.0028,-0.0001,0.0012000000000000001,-0.014,-0.04,-0.091
1701527316.129,19.609,19.609,-19.609,-0.0001,0.0004,0.0045000000000000005,-0.002,-0.07200000000000001,-0.091
1701527316.169,19.609,19.609,-19.609,0.001,0.0001,-0.004200000000000001,0.022,-0.084,-0.097
1701527316.2089999,19.609,19.609,-19.609,0.0021000000000000003,-0.0034000000000000002,-0.0011,0.014,-0.091,-0.116
1701527316.249,19.609,19.609,-19.609,0.0004,-0.0018000000000000002,0.0025,0.015,-0.109,-0.097
1701527316.289,19.609,19.609,-19.609,-0.0006000000000000001,-0.0017000000000000001,-0.014700000000000001,0.035,-0.08700000000000001,-0.101
1701527316.329,19.609,19.609,-19.609,-0.0005,-0.0005,0.0008,0.013000000000000001,-0.079,-0.111
1701527316.369,19.609,19.609,-19.609,0.002,0.0012000000000000001,-0.0015,0.029,-0.031,-0.114
1701527316.409,19.609,19.609,-19.609,0.0026000000000000003,-0.0021000000000000003,-0.0029000000000000002,0.016,-0.047,-0.105
1701527316.449,19.609,19.609,-19.609,0.0015,0.0018000000000000002,-0.0046,0.001,-0.046,-0.11
1701527316.489,19.609,19.609,-19.609,-0.0021000000000000003,-0.0001,0.001,0.0,-0.043000000000000003,-0.10300000000000001
1701527316.529,19.609,19.609,-19.609,-0.0007,-0.0008,0.0037,-0.009000000000000001,-0.034,-0.10400000000000001
1701527316.569,19.609,19.609,-19.609,0.0001,-0.002,0.0131,-0.008,-0.035,-0.109
1701527316.609,19.609,19.609,-19.609,0.0018000000000000002,0.002,-0.0126,0.001,-0.036000000000000004,-0.116
1701527316.649,19.609,19.609,-19.609,0.0028,-0.0023,0.0017000000000000001,-0.003,-0.042,-0.113
1701527316.689,19.609,19.609,-19.609,0.0023,-0.0002,-0.004,-0.009000000000000001,-0.044,-0.107
1701527316.729,19.609,19.609,-19.609,0.001,-0.0018000000000000002,0.0071,-0.009000000000000001,-0.04,-0.10300000000000001
1701527316.769,19.609,19.609,-19.609,0.0017000000000000001,-0.0018000000000000002,-0.0114,-0.006,-0.047,-0.10300000000000001
1701527316.809,19.609,19.609,-19.609,0.0004,-0.0006000000000000001,-0.0012000000000000001,0.007,-0.047,-0.113
1701527316.849,19.609,19.609,-19.609,0.0006000000000000001,-0.0006000000000000001,0.0095,0.003,-0.054,-0.113
1701527316.889,19.609,19.609,-19.609,0.0026000000000000003,0.0006000000000000001,0.0021000000000000003,-0.005,-0.055,-0.105
1701527316.929,19.609,19.609,-19.609,0.0005,-0.0009000000000000001,-0.0051,-0.004,-0.055,-0.098
1701527316.969,19.609,19.609,-19.609,0.0028,0.0001,-0.0037,-0.003,-0.053,-0.095
1701527317.009,19.609,19.609,-19.609,0.0034000000000000002,-0.0006000000000000001,0.0029000000000000002,0.003,-0.055,-0.097
1701527317.049,19.609,19.609,-19.609,-0.0002,-0.001,-0.0173,0.011,-0.041,-0.10400000000000001
1701527317.089,19.609,19.609,-19.609,-0.0001,0.0012000000000000001,0.008400000000000001,0.011,-0.029,-0.109
1701527317.129,19.609,19.609,-19.609,0.0017000000000000001,-0.0006000000000000001,0.0,-0.001,-0.027,-0.106
1701527317.169,19.609,19.609,-19.609,0.0025,0.0021000000000000003,0.002,-0.011,-0.027,-0.085
1701527317.209,19.609,19.609,-19.609,0.0,-0.0019,0.0111,-0.005,-0.028,-0.092
1701527317.249,19.609,19.609,-19.609,-0.0005,-0.00030000000000000003,-0.0001,0.011,-0.038,-0.1
1701527317.289,19.609,19.609,-19.609,0.0025,0.0005,-0.0189,0.011,-0.049,-0.11800000000000001
1701527317.329,19.609,19.609,-19.609,0.0021000000000000003,-0.0009000000000000001,-0.0184,0.009000000000000001,-0.045,-0.10300000000000001
1701527317.369,19.609,19.609,-19.609,0.0001,-0.0004,-0.0004,-0.011,-0.035,-0.09
1701527317.409,19.609,19.609,-19.609,0.0011,-0.0007,0.0046,-0.011,-0.025,-0.098
1701527317.449,19.609,19.609,-19.609,-0.0001,0.0012000000000000001,-0.0059,-0.003,-0.029,-0.108
1701527317.4889998,19.609,19.609,-19.609,0.0007,-0.0007,-0.00030000000000000003,-0.006,-0.034,-0.10300000000000001
1701527317.529,19.609,19.609,-19.609,0.0037,-0.0017000000000000001,-0.0054,0.0,-0.04,-0.10400000000000001
1701527317.569,19.609,19.609,-19.609,0.0005,-0.0018000000000000002,-0.0068000000000000005,0.01,-0.036000000000000004,-0.114
1701527317.609,19.609,19.609,-19.609,0.0029000000000000002,0.0009000000000000001,0.0035,-0.001,-0.033,-0.116
1701527317.649,19.609,19.609,-19.609,-0.0001,0.0006000000000000001,0.0,0.001,-0.043000000000000003,-0.108
1701527317.689,19.609,19.609,-19.609,0.0022,-0.0001,-0.0005,-0.013000000000000001,-0.031,-0.114
1701527317.7289999,19.609,19.609,-19.609,-0.00030000000000000003,-0.001,0.0032,-0.017,-0.046,-0.111
1701527317.769,19.609,19.609,-19.609,0.0012000000000000001,-0.0008,-0.0012000000000000001,0.007,-0.041,-0.107
1701527317.809,19.609,19.609,-19.609,-0.0004,-0.001,-0.0073,-0.017,-0.037,-0.109
1701527317.849,19.609,19.609,-19.609,0.00030000000000000003,-0.0009000000000000001,0.0089,-0.011,-0.025,-0.106
1701527317.889,19.609,19.609,-19.609,0.0014,-0.0004,-0.0048000000000000004,-0.006,-0.027,-0.111
1701527317.929,19.609,19.609,-19.609,0.0008,-0.0007,0.0057,-0.01,-0.02,-0.097
1701527317.9689999,19.609,19.609,-19.609,0.001,-0.0021000000000000003,-0.019700000000000002,-0.012,-0.026000000000000002,-0.094
1701527318.009,19.609,19.609,-19.609,0.001,-0.0008,0.008700000000000001,-0.013000000000000001,-0.022,-0.088
1701527318.049,19.609,19.609,-19.609,0.0008,-0.001,0.0014,0.001,-0.037,-0.096
1701527318.089,19.609,19.609,-19.609,0.0007,-0.0014,0.0002,0.021,-0.029,-0.098
1701527318.129,19.609,19.609,-19.609,0.0019,0.0011,-0.0018000000000000002,0.0,-0.027,-0.098
1701527318.169,19.609,19.609,-19.609,-0.0012000000000000001,-0.0014,-0.0068000000000000005,-0.008,0.012,-0.082
1701527318.2089999,19.609,19.609,-19.609,0.0023,-0.0013000000000000002,-0.0019,-0.007,-0.036000000000000004,-0.08700000000000001
1701527318.249,19.609,19.609,-19.609,0.0015,-0.0008,0.0004,0.008,-0.065,-0.097
1701527318.289,19.609,19.609,-19.609,-0.0002,-0.0022,-0.0063,0.015,-0.049,-0.10400000000000001
1701527318.329,19.609,19.609,-19.609,0.0036000000000000003,0.0001,0.007500000000000001,0.01,-0.069,-0.096
1701527318.369,19.609,19.609,-19.609,0.0004,0.00030000000000000003,-0.0004,0.0,-0.06,-0.098
1701527318.409,19.609,19.609,-19.609,0.0031000000000000003,-0.0023,-0.0046,-0.007,-0.049,-0.109
1701527318.449,19.609,19.609,-19.609,0.0007,-0.00030000000000000003,-0.007,-0.01,-0.035,-0.10400000000000001
1701527318.489,19.609,19.609,-19.609,0.0009000000000000001,-0.0029000000000000002,0.0012000000000000001,-0.017,-0.038,-0.093
1701527318.529,19.609,19.609,-19.609,0.0013000000000000002,0.0008,-0.0089,-0.003,-0.04,-0.10200000000000001
1701527318.569,19.609,19.609,-19.609,0.0008,-0.0018000000000000002,0.0014,-0.004,-0.039,-0.107
1701527318.609,19.609,19.609,-19.609,0.0001,-0.0006000000000000001,-0.0055000000000000005,-0.001,-0.036000000000000004,-0.10300000000000001
1701527318.649,19.609,19.609,-19.609,0.0018000000000000002,-0.001,-0.0025,-0.007,-0.043000000000000003,-0.095
1701527318.689,19.609,19.609,-19.609,0.0007,0.0007,-0.0058000000000000005,0.0,-0.042,-0.106
1701527318.729,19.609,19.609,-19.609,0.0004,-0.0025,0.0088,-0.008,-0.041,-0.1
1701527318.769,19.609,19.609,-19.609,0.0024000000000000002,-0.0017000000000000001,-0.0026000000000000003,-0.01,-0.032,-0.105
1701527318.809,19.609,19.609,-19.609,0.0001,0.0019,-0.0004,-0.004,-0.04,-0.096
1701527318.849,19.609,19.609,-19.609,0.0013000000000000002,-0.0008,-0.007500000000000001,0.007,-0.038,-0.099
1701527318.889,19.609,19.609,-19.609,-0.0018000000000000002,-0.0021000000000000003,-0.0025,0.015,-0.037,-0.10200000000000001
1701527318.929,19.609,19.609,-19.609,0.0002,-0.0014,0.0049,0.005,-0.043000000000000003,-0.101
1701527318.969,19.609,19.609,-19.609,0.0014,0.0004,-0.0056,0.005,-0.046,-0.093
1701527319.009,19.609,19.609,-19.609,0.0002,0.0005,-0.0176,0.003,-0.052000000000000005,-0.089
1701527319.049,19.609,19.609,-19.609,-0.00030000000000000003,0.0011,-0.006200000000000001,0.004,-0.052000000000000005,-0.091
1701527319.089,19.609,19.609,-19.609,0.0001,-0.0001,-0.0161,0.015,-0.05,-0.11
1701527319.129,19.609,19.609,-19.609,0.0,-0.001,0.0134,0.014,-0.04,-0.117
1701527319.169,19.609,19.609,-19.609,-0.0006000000000000001,-0.0026000000000000003,0.019100000000000002,-0.006,-0.034,-0.109
1701527319.209,19.609,19.609,-19.609,0.0015,-0.0018000000000000002,-0.0047,-0.03,-0.024,-0.1
1701527319.249,19.609,19.609,-19.609,0.0027,-0.0015,-0.0068000000000000005,-0.025,-0.031,-0.1
1701527319.289,19.609,19.609,-19.609,0.0015,-0.0008,0.0029000000000000002,0.0,-0.053,-0.113
1701527319.329,19.609,19.609,-19.609,0.0,-0.0005,0.0012000000000000001,0.005,-0.067,-0.123
1701527319.369,19.609,19.609,-19.609,0.0007,-0.0001,-0.006500000000000001,0.0,-0.06,-0.10400000000000001
1701527319.409,19.609,19.609,-19.609,0.0018000000000000002,0.0009000000000000001,-0.005200000000000001,-0.005,-0.037,-0.10200000000000001
1701527319.449,19.609,19.609,-19.609,0.0031000000000000003,-0.0006000000000000001,0.0036000000000000003,-0.008,-0.025,-0.117
1701527319.4889998,19.609,19.609,-19.609,-0.0007,-0.0019,-0.0018000000000000002,-0.012,-0.018000000000000002,-0.107
1701527319.529,19.609,19.609,-19.609,-0.0016,0.0016,-0.0079,-0.015,-0.019,-0.097
1701527319.569,19.609,19.609,-19.609,-0.0001,-0.0031000000000000003,0.0229,0.001,-0.036000000000000004,-0.108
1701527319.609,19.609,19.609,-19.609,0.0017000000000000001,0.0007,-0.015000000000000001,0.01,-0.042,-0.11
1701527319.649,19.609,19.609,-19.609,0.0009000000000000001,0.0024000000000000002,-0.0178,0.0,-0.053,-0.11
1701527319.689,19.609,19.609,-19.609,0.0025,-0.0005,0.0048000000000000004,0.001,-0.055,-0.10300000000000001
1701527319.7289999,19.609,19.609,-19.609,0.0014,-0.0025,-0.0013000000000000002,-0.003,-0.055,-0.101
1701527319.769,19.609,19.609,-19.609,0.0018000000000000002,-0.0006000000000000001,0.0026000000000000003,-0.003,-0.066,-0.108
1701527319.809,19.609,19.609,-19.609,0.0015,-0.00030000000000000003,-0.0046,-0.002,-0.037,-0.107
1701527319.849,19.609,19.609,-19.609,0.0059,0.0,-0.0009000000000000001,-0.001,-0.038,-0.098
1701527319.889,19.609,19.609,-19.609,0.0011,-0.0011,-0.008,0.0,-0.044,-0.1
1701527319.929,19.609,19.609,-19.609,-0.0016,0.0004,0.002,0.024,-0.044,-0.108
1701527319.9689999,19.609,19.609,-19.609,0.0017000000000000001,0.0002,-0.0027,-0.008,-0.039,-0.106
1701527320.009,19.609,19.609,-19.609,-0.0015,-0.0008,0.0002,-0.007,-0.034,-0.101
1701527320.049,19.609,19.609,-19.609,0.0035,-0.0015,-0.0056,-0.008,-0.047,-0.10300000000000001
1701527320.089,19.609,19.609,-19.609,0.0019,-0.00030000000000000003,0.0043,0.0,-0.039,-0.108
1701527320.129,19.609,19.609,-19.609,-0.0008,0.00030000000000000003,-0.005,-0.007,-0.041,-0.11
1701527320.169,19.609,19.609,-19.609,0.0,-0.0002,0.004,-0.007,-0.025,-0.108
1701527320.2089999,19.609,19.609,-19.609,-0.00030000000000000003,0.0009000000000000001,-0.0031000000000000003,-0.012,-0.028,-0.099
1701527320.249,19.609,19.609,-19.609,-0.0001,-0.0022,-0.0021000000000000003,-0.003,-0.047,-0.095
1701527320.289,19.609,19.609,-19.609,-0.0009000000000000001,-0.0008,0.0014,0.033,-0.048,-0.10200000000000001
1701527320.329,19.609,19.609,-19.609,0.0012000000000000001,0.0013000000000000002,-0.0053,0.019,-0.062,-0.11800000000000001
1701527320.369,19.609,19.609,-19.609,-0.0002,-0.00030000000000000003,0.0015,0.01,-0.055,-0.10200000000000001
1701527320.409,19.609,19.609,-19.609,0.0,-0.0017000000000000001,-0.0038,-0.003,-0.024,-0.10200000000000001
1701527320.449,19.609,19.609,-19.609,-0.0006000000000000001,-0.0007,-0.0054,-0.012,-0.021,-0.11900000000000001
1701527320.489,19.609,19.609,-19.609,-0.00030000000000000003,0.0007,0.0023,-0.013000000000000001,-0.013000000000000001,-0.114
1701527320.529,19.609,19.609,-19.609,0.0016,0.0002,-0.0041,-0.021,-0.024,-0.107
1701527320.569,19.609,19.609,-19.609,0.0012000000000000001,-0.0012000000000000001,0.004200000000000001,-0.01,-0.029,-0.108
1701527320.609,19.609,19.609,-19.609,0.0008,0.0009000000000000001,-0.0009000000000000001,-0.002,-0.037,-0.109
1701527320.649,19.609,19.609,-19.609,0.0007,-0.0017000000000000001,0.0001,-0.002,-0.033,-0.11
1701527320.689,19.609,19.609,-19.609,0.0027,-0.001,-0.0006000000000000001,-0.017,-0.03,-0.10300000000000001
1701527320.729,19.609,19.609,-19.609,0.0017000000000000001,-0.0002,0.0023,-0.02,-0.026000000000000002,-0.096
1701527320.769,19.609,19.609,-19.609,0.0001,-0.0005,-0.0085,-0.017,-0.032,-0.096
1701527320.809,19.609,19.609,-19.609,-0.0028,-0.0029000000000000002,-0.0218,-0.01,-0.027,-0.08700000000000001
1701527320.849,19.609,19.609,-19.609,0.001,-0.0023,0.0122,-0.002,-0.026000000000000002,-0.09
1701527320.889,19.609,19.609,-19.609,0.00030000000000000003,-0.0016,0.0081,0.007,-0.03,-0.08700000000000001
1701527320.929,19.609,19.609,-19.609,-0.0009000000000000001,-0.0001,-0.0028,0.014,-0.036000000000000004,-0.088
1701527320.969,19.609,19.609,-19.609,0.0014,-0.0029000000000000002,0.0129,0.017,-0.046,-0.073
1701527321.009,19.609,19.609,-19.609,0.0039000000000000003,-0.0031000000000000003,-0.0094,0.014,-0.045,-0.073
1701527321.049,19.609,19.609,-19.609,0.0008,-0.0009000000000000001,-0.0013000000000000002,0.024,-0.043000000000000003,-0.088
1701527321.089,19.609,19.609,-19.609,-0.0002,-0.0006000000000000001,-0.010100000000000001,0.025,-0.035,-0.10200000000000001
1701527321.129,19.609,19.609,-19.609,0.0004,-0.0001,0.0178,0.005,-0.033,-0.096
1701527321.169,19.609,19.609,-19.609,0.0017000000000000001,-0.0033,-0.002,0.0,-0.033,-0.082
1701527321.209,19.609,19.609,-19.609,0.0012000000000000001,-0.0013000000000000002,-0.0061,-0.013000000000000001,-0.031,-0.089
1701527321.249,19.609,19.609,-19.609,0.0018000000000000002,-0.0009000000000000001,-0.0006000000000000001,0.0,-0.044,-0.10200000000000001
1701527321.289,19.609,19.609,-19.609,0.0016,-0.0012000000000000001,0.0018000000000000002,0.0,-0.056,-0.11800000000000001
1701527321.329,19.609,19.609,-19.609,0.002,0.0018000000000000002,-0.0031000000000000003,-0.002,-0.058,-0.1
1701527321.369,19.609,19.609,-19.609,0.0023,0.0025,-0.0108,-0.015,-0.065,-0.107
1701527321.409,19.609,19.609,-19.609,0.0017000000000000001,-0.0015,0.0007,-0.025,-0.028,-0.11800000000000001
1701527321.449,19.609,19.609,-19.609,-0.0006000000000000001,0.0012000000000000001,0.0025,-0.016,-0.027,-0.10200000000000001
1701527321.4889998,19.609,19.609,-19.609,0.0015,0.0,0.0034000000000000002,-0.03,-0.039,-0.094
1701527321.529,19.609,19.609,-19.609,0.003,-0.0017000000000000001,0.0029000000000000002,-0.029,-0.049,-0.113
1701527321.569,19.609,19.609,-19.609,0.0007,-0.0018000000000000002,-0.0125,-0.02,-0.063,-0.12
1701527321.609,19.609,19.609,-19.609,-0.0007,0.0011,0.0068000000000000005,-0.024,-0.068,-0.117
1701527321.649,19.609,19.609,-19.609,-0.0004,-0.0008,-0.007200000000000001,-0.022,-0.07200000000000001,-0.107
1701527321.689,19.609,19.609,-19.609,0.0041,0.00030000000000000003,0.0059,-0.011,-0.062,-0.101
1701527321.7289999,19.609,19.609,-19.609,0.0014,0.0006000000000000001,-0.0014,0.018000000000000002,-0.06,-0.114
1701527321.769,19.609,19.609,-19.609,0.0,-0.0015,-0.0016,0.005,-0.054,-0.105
1701527321.809,19.609,19.609,-19.609,0.0009000000000000001,-0.0006000000000000001,-0.0032,0.009000000000000001,-0.03,-0.099
1701527321.849,19.609,19.609,-19.609,-0.001,-0.0004,-0.0057,0.015,-0.044,-0.1
1701527321.889,19.609,19.609,-19.609,-0.0004,-0.0014,-0.0026000000000000003,0.023,-0.039,-0.105
1701527321.929,19.609,19.609,-19.609,-0.0021000000000000003,-0.0016,-0.0012000000000000001,0.019,-0.031,-0.1
1701527321.9689999,19.609,19.609,-19.609,0.0004,0.0002,-0.0061,0.013000000000000001,-0.022,-0.112
1701527322.009,19.609,19.609,-19.609,0.0019,-0.0015,-0.0068000000000000005,0.003,-0.035,-0.116
1701527322.049,19.609,19.609,-19.609,0.0036000000000000003,0.0006000000000000001,0.0024000000000000002,-0.007,-0.019,-0.101
1701527322.089,19.609,19.609,-19.609,0.0015,0.0001,-0.0123,-0.012,-0.018000000000000002,-0.094
1701527322.129,19.609,19.609,-19.609,0.002,0.0005,0.0083,0.005,-0.033,-0.108
1701527322.169,19.609,19.609,-19.609,0.0009000000000000001,-0.0015,0.0001,0.019,-0.027,-0.112
1701527322.2089999,19.609,19.609,-19.609,0.0001,-0.0017000000000000001,-0.012,0.006,-0.029,-0.117
1701527322.249,19.609,19.609,-19.609,-0.0027,-0.0018000000000000002,0.0036000000000000003,-0.026000000000000002,-0.033,-0.099
1701527322.289,19.609,19.609,-19.609,0.0009000000000000001,-0.0012000000000000001,-0.0029000000000000002,-0.016,-0.034,-0.095
1701527322.329,19.609,19.609,-19.609,0.0021000000000000003,-0.0004,-0.0016,0.004,-0.044,-0.117
1701527322.369,19.609,19.609,-19.609,-0.0009000000000000001,0.0007,-0.0011,0.005,-0.062,-0.123
1701527322.409,19.609,19.609,-19.609,0.0023,0.0021000000000000003,0.0014,0.004,-0.067,-0.113
1701527322.449,19.609,19.609,-19.609,0.0011,-0.0001,-0.0018000000000000002,-0.01,-0.049,-0.097
1701527322.489,19.609,19.609,-19.609,0.0015,-0.0006000000000000001,-0.0109,-0.01,-0.035,-0.109
1701527322.529,19.609,19.609,-19.609,-0.0009000000000000001,0.0,0.0006000000000000001,0.003,-0.031,-0.105
1701527322.569,19.609,19.609,-19.609,0.0036000000000000003,-0.00030000000000000003,-0.0058000000000000005,-0.007,-0.031,-0.10200000000000001
1701527322.609,19.609,19.609,-19.609,0.003,-0.0009000000000000001,0.0164,0.003,-0.037,-0.1
1701527322.649,19.609,19.609,-19.609,0.0017000000000000001,-0.0016,0.0017000000000000001,0.007,-0.04,-0.107
1701527322.689,19.609,19.609,-19.609,0.0007,-0.0024000000000000002,0.004,0.003,-0.042,-0.108
1701527322.729,19.609,19.609,-19.609,-0.0015,-0.0021000000000000003,0.0145,-0.01,-0.038,-0.10300000000000001
1701527322.769,19.609,19.609,-19.609,0.0015,-0.0004,-0.0079,-0.01,-0.033,-0.107
1701527322.809,19.609,19.609,-19.609,-0.0008,-0.00030000000000000003,-0.0149,0.0,-0.041,-0.114
1701527322.849,19.609,19.609,-19.609,0.0008,0.0004,0.0103,-0.009000000000000001,-0.036000000000000004,-0.10200000000000001
1701527322.889,19.609,19.609,-19.609,0.0006000000000000001,-0.0009000000000000001,-0.020900000000000002,-0.003,-0.044,-0.107
1701527322.929,19.609,19.609,-19.609,0.0005,-0.0021000000000000003,-0.0056,-0.001,-0.04,-0.106
1701527322.969,19.609,19.609,-19.609,-0.0027,0.0022,-0.0033,0.005,-0.044,-0.10300000000000001
1701527323.009,19.609,19.609,-19.609,-0.0006000000000000001,-0.0026000000000000003,0.0057,-0.002,-0.047,-0.105
1701527323.049,19.609,19.609,-19.609,0.0006000000000000001,-0.0009000000000000001,-0.0031000000000000003,-0.038,-0.038,-0.106
1701527323.089,19.609,19.609,-19.609,0.0022,-0.0012000000000000001,-0.0025,-0.007,-0.043000000000000003,-0.105
1701527323.129,19.609,19.609,-19.609,-0.0015,-0.0002,0.0035,0.001,-0.049,-0.106
1701527323.169,19.609,19.609,-19.609,0.0025,-0.002,-0.0043,0.003,-0.028,-0.107
1701527323.209,19.609,19.609,-19.609,-0.0026000000000000003,-0.0017000000000000001,-0.007500000000000001,0.009000000000000001,-0.022,-0.117
1701527323.249,19.609,19.609,-19.609,0.0004,-0.0008,-0.0076,-0.023,-0.022,-0.11
1701527323.289,19.609,19.609,-19.609,0.0039000000000000003,0.0026000000000000003,-0.0035,0.003,-0.025,-0.109
1701527323.329,19.609,19.609,-19.609,0.0001,-0.0012000000000000001,0.0026000000000000003,-0.013000000000000001,-0.033,-0.107
1701527323.369,19.609,19.609,-19.609,-0.0001,-0.0002,-0.0036000000000000003,-0.011,-0.042,-0.11
1701527323.409,19.609,19.609,-19.609,0.0009000000000000001,0.0,0.0068000000000000005,0.01,-0.061,-0.116
1701527323.449,19.609,19.609,-19.609,0.0017000000000000001,0.0001,0.0041,0.0,-0.059000000000000004,-0.106
1701527323.4889998,19.609,19.609,-19.609,0.0001,-0.0002,-0.0043,-0.021,-0.06,-0.113
1701527323.529,19.609,19.609,-19.609,-0.00030000000000000003,-0.0002,-0.0006000000000000001,-0.017,-0.035,-0.11900000000000001
1701527323.569,19.609,19.609,-19.609,0.002,-0.00030000000000000003,-0.002,-0.029,-0.029,-0.11800000000000001
1701527323.609,19.609,19.609,-19.609,0.0,-0.0002,-0.0076,-0.043000000000000003,-0.037,-0.109
1701527323.649,19.609,19.609,-19.609,0.0026000000000000003,-0.0008,-0.0012000000000000001,-0.022,-0.051000000000000004,-0.107
1701527323.689,19.609,19.609,-19.609,0.00030000000000000003,-0.00030000000000000003,-0.0009000000000000001,-0.04,-0.105,-0.114
1701527323.7289999,19.609,19.609,-19.609,-0.0004,-0.0001,0.0045000000000000005,-0.05,-0.193,-0.1
1701527323.769,19.609,19.609,-19.609,-0.0006000000000000001,0.0005,-0.005,-0.123,-0.293,-0.066
1701527323.809,19.609,19.609,-19.609,0.0021000000000000003,0.0,-0.0078000000000000005,-0.113,-0.373,-0.042
1701527323.849,19.609,19.609,-19.609,0.0017000000000000001,0.00030000000000000003,-0.0112,-0.073,-0.455,-0.075
1701527323.889,19.609,19.609,-19.609,0.002,-0.0032,-0.0054,-0.009000000000000001,-0.504,-0.113
1701527323.929,19.609,19.609,-19.609,-0.0013000000000000002,-0.0007,0.0059,-0.002,-0.5750000000000001,-0.135
1701527323.9689999,19.609,19.609,-19.609,-0.0015,0.0,-0.0068000000000000005,-0.02,-0.603,-0.111
1701527324.009,19.609,19.609,-19.609,0.0048000000000000004,0.001,-0.0036000000000000003,-0.053,-0.61,-0.074
1701527324.049,19.609,19.609,-19.609,0.0035,-0.0012000000000000001,-0.0031000000000000003,-0.10200000000000001,-0.608,-0.009000000000000001
1701527324.089,19.609,19.609,-19.609,0.0,-0.001,0.0013000000000000002,-0.231,-0.545,0.101
1701527324.129,19.609,19.609,-19.609,0.0007,-0.0032,-0.0067,-0.309,-0.463,0.2
1701527324.169,19.609,19.609,-19.609,0.0005,-0.0018000000000000002,-0.0039000000000000003,-0.424,-0.326,0.257
1701527324.2089999,19.609,19.609,-19.609,-0.0013000000000000002,-0.0009000000000000001,-0.0014,-0.505,-0.182,0.379
1701527324.249,19.609,19.609,-19.609,0.002,-0.0022,-0.0046,-0.634,-0.005,0.468
1701527324.289,19.609,19.609,-19.609,0.0006000000000000001,-0.0018000000000000002,0.007500000000000001,-0.637,0.124,0.488
1701527324.329,19.609,19.609,-19.609,-0.0005,-0.0006000000000000001,-0.012700000000000001,-0.519,0.24,0.401
1701527324.369,19.609,19.609,-19.609,0.002,0.0004,0.0049,-0.396,0.332,0.366
1701527324.409,19.609,19.609,-19.609,0.0004,-0.0032,-0.0032,-0.392,0.34400000000000003,0.448
1701527324.449,19.609,19.609,-19.609,0.001,-0.0008,-0.0032,-0.644,0.453,0.671
1701527324.489,19.609,19.609,-19.609,0.0005,0.0,-0.0167,-0.85,0.394,0.8320000000000001
1701527324.529,19.609,19.609,-19.609,0.0046,-0.00030000000000000003,0.0001,-1.153,0.314,1.07
1701527324.569,19.609,19.609,-19.609,0.0021000000000000003,0.0011,-0.0043,-1.293,0.321,1.237
1701527324.609,19.609,19.609,-19.609,-0.0026000000000000003,-0.00030000000000000003,-0.0024000000000000002,-1.45,-0.018000000000000002,1.129
1701527324.649,19.609,19.609,-19.609,0.00030000000000000003,-0.0009000000000000001,0.0011,-1.311,-0.23700000000000002,0.9510000000000001
1701527324.689,19.609,19.609,-19.609,0.0,-0.0024000000000000002,0.009600000000000001,-1.044,-0.503,0.63
1701527324.729,19.609,19.609,-19.609,0.0009000000000000001,-0.0006000000000000001,-0.0073,-0.78,-0.482,0.23500000000000001
1701527324.769,19.609,19.609,-19.609,0.002,-0.0017000000000000001,-0.0098,-0.41300000000000003,-0.605,-0.209
1701527324.809,19.609,19.609,-19.609,0.0028,-0.0016,-0.007500000000000001,-0.167,-0.681,-0.509
1701527324.849,19.609,19.609,-19.609,0.0001,-0.0026000000000000003,0.001,-0.006,-0.759,-0.718
1701527324.889,19.609,19.609,-19.609,0.0024000000000000002,0.0022,0.0106,-0.043000000000000003,-0.79,-0.733
1701527324.929,19.609,19.609,-19.609,0.0006000000000000001,-0.0013000000000000002,0.0011,-0.165,-0.787,-0.557
1701527324.969,19.609,19.609,-19.609,0.0009000000000000001,-0.0014,0.020800000000000003,-0.23500000000000001,-0.8180000000000001,-0.462
1701527325.009,19.609,19.609,-19.609,0.0031000000000000003,-0.002,-0.0114,-0.257,-0.709,-0.396
1701527325.049,19.609,19.609,-19.609,0.0023,-0.0016,-0.0046,-0.165,-0.609,-0.401
1701527325.089,19.609,19.609,-19.609,0.0034000000000000002,-0.0024000000000000002,0.0018000000000000002,-0.052000000000000005,-0.371,-0.361
1701527325.129,19.609,19.609,-19.609,0.0016,-0.002,-0.032,0.011,-0.29,-0.322
1701527325.169,19.609,19.609,-19.609,0.0004,-0.0011,0.033800000000000004,0.096,-0.181,-0.262
