timestamp,acc_x,acc_y,acc_z,magn_x,magn_y,magn_z,gyro_x,gyro_y,gyro_z
1701526953.968,19.609,19.609,-19.609,0.0006000000000000001,-0.0006000000000000001,0.0001,0.027,-0.048,-0.107
1701526954.008,19.609,19.609,-19.609,0.0015,-0.0001,0.0054,0.02,-0.081,-0.10300000000000001
1701526954.048,19.609,19.609,-19.609,-0.0006000000000000001,0.0001,0.0076,0.007,-0.084,-0.108
1701526954.088,19.609,19.609,-19.609,0.001,-0.0002,0.0366,-0.019,-0.076,-0.10300000000000001
1701526954.128,19.609,19.609,-19.609,0.0,0.0004,-0.0038,-0.033,-0.06,-0.109
1701526954.168,19.609,19.609,-19.609,0.001,-0.0014,-0.0055000000000000005,-0.032,-0.05,-0.114
1701526954.208,19.609,19.609,-19.609,-0.0005,0.0006000000000000001,-0.0058000000000000005,-0.044,-0.041,-0.123
1701526954.248,19.609,19.609,-19.609,0.0011,-0.0009000000000000001,0.0033,-0.035,-0.048,-0.11900000000000001
1701526954.288,19.609,19.609,-19.609,0.0024000000000000002,0.0006000000000000001,-0.0059,-0.029,-0.056,-0.111
1701526954.328,19.609,19.609,-19.609,0.001,0.0002,0.0122,-0.029,-0.059000000000000004,-0.11800000000000001
1701526954.368,19.609,19.609,-19.609,0.0005,0.0015,-0.0045000000000000005,-0.021,-0.014,-0.10200000000000001
1701526954.408,19.609,19.609,-19.609,-0.0014,0.00030000000000000003,0.0055000000000000005,-0.02,-0.041,-0.121
1701526954.448,19.609,19.609,-19.609,0.001,-0.0001,0.001,-0.027,-0.027,-0.123
1701526954.488,19.609,19.609,-19.609,0.0019,0.0011,0.0025,-0.04,-0.009000000000000001,-0.116
1701526954.528,19.609,19.609,-19.609,0.0,0.0004,0.0089,-0.049,-0.012,-0.101
1701526954.568,19.609,19.609,-19.609,0.0007,-0.0005,0.013900000000000001,-0.037,-0.022,-0.1
1701526954.608,19.609,19.609,-19.609,0.0013000000000000002,0.0023,-0.0029000000000000002,-0.024,-0.051000000000000004,-0.105
1701526954.648,19.609,19.609,-19.609,0.0,0.0008,-0.0051,-0.018000000000000002,-0.031,-0.1
1701526954.688,19.609,19.609,-19.609,-0.0012000000000000001,0.0004,0.0029000000000000002,-0.008,-0.042,-0.105
1701526954.728,19.609,19.609,-19.609,-0.00030000000000000003,0.0008,-0.0016,-0.017,-0.011,-0.099
1701526954.768,19.609,19.609,-19.609,0.0017000000000000001,0.0023,-0.0073,-0.021,0.021,-0.113
1701526954.8079998,19.609,19.609,-19.609,-0.0006000000000000001,-0.0002,-0.0004,-0.029,0.025,-0.108
1701526954.848,19.609,19.609,-19.609,-0.0012000000000000001,0.0005,-0.001,-0.032,-0.014,-0.098
1701526954.888,19.609,19.609,-19.609,-0.0002,0.0005,-0.0051,-0.025,-0.035,-0.094
1701526954.928,19.609,19.609,-19.609,0.00030000000000000003,-0.0014,0.004,-0.016,-0.053,-0.112
1701526954.968,19.609,19.609,-19.609,0.0007,-0.0001,0.0014,-0.011,-0.06,-0.109
1701526955.008,19.609,19.609,-19.609,-0.0006000000000000001,0.0009000000000000001,-0.0015,-0.04,-0.055,-0.105
1701526955.0479999,19.609,19.609,-19.609,0.0014,-0.00030000000000000003,0.0043,-0.016,-0.055,-0.105
1701526955.088,19.609,19.609,-19.609,0.0014,0.0004,0.0,0.001,-0.067,-0.114
1701526955.128,19.609,19.609,-19.609,0.0018000000000000002,0.0011,-0.0091,0.014,-0.067,-0.125
1701526955.168,19.609,19.609,-19.609,0.0017000000000000001,0.0004,0.0002,0.0,-0.056,-0.121
1701526955.208,19.609,19.609,-19.609,0.0018000000000000002,0.0018000000000000002,-0.002,-0.004,-0.062,-0.117
1701526955.248,19.609,19.609,-19.609,0.002,0.0006000000000000001,-0.0024000000000000002,-0.024,-0.063,-0.121
1701526955.2879999,19.609,19.609,-19.609,-0.00030000000000000003,-0.0002,0.0012000000000000001,-0.031,-0.03,-0.10300000000000001
1701526955.328,19.609,19.609,-19.609,-0.0002,0.0011,-0.0024000000000000002,-0.016,-0.045,-0.12
1701526955.368,19.609,19.609,-19.609,0.0048000000000000004,-0.0021000000000000003,-0.0051,-0.012,-0.046,-0.124
1701526955.408,19.609,19.609,-19.609,0.0014,0.0011,0.0019,-0.02,-0.037,-0.111
1701526955.448,19.609,19.609,-19.609,0.0013000000000000002,0.0,0.0006000000000000001,-0.036000000000000004,0.008,-0.107
1701526955.488,19.609,19.609,-19.609,0.0006000000000000001,-0.0005,-0.013900000000000001,-0.03,0.025,-0.116
1701526955.5279999,19.609,19.609,-19.609,-0.0012000000000000001,0.00030000000000000003,0.0125,-0.013000000000000001,0.003,-0.131
1701526955.568,19.609,19.609,-19.609,0.0006000000000000001,-0.0004,0.006200000000000001,-0.013000000000000001,0.007,-0.127
1701526955.608,19.609,19.609,-19.609,0.0,-0.0009000000000000001,-0.0053,-0.002,-0.052000000000000005,-0.115
1701526955.648,19.609,19.609,-19.609,-0.001,0.0009000000000000001,0.0014,0.0,-0.052000000000000005,-0.105
1701526955.688,19.609,19.609,-19.609,-0.001,0.0021000000000000003,-0.0098,-0.007,-0.015,-0.10200000000000001
1701526955.728,19.609,19.609,-19.609,0.0023,-0.0007,-0.0046,-0.026000000000000002,0.005,-0.093
1701526955.768,19.609,19.609,-19.609,0.0006000000000000001,0.0,0.0009000000000000001,-0.032,-0.009000000000000001,-0.085
1701526955.808,19.609,19.609,-19.609,0.0016,0.0004,0.0061,-0.024,-0.007,-0.093
1701526955.848,19.609,19.609,-19.609,-0.0014,0.0002,0.0012000000000000001,-0.008,-0.007,-0.113
1701526955.888,19.609,19.609,-19.609,0.0015,0.0004,0.0002,-0.006,-0.022,-0.114
1701526955.928,19.609,19.609,-19.609,-0.00030000000000000003,-0.0009000000000000001,-0.0051,-0.017,-0.035,-0.129
1701526955.968,19.609,19.609,-19.609,-0.0007,0.0,0.0026000000000000003,-0.021,-0.046,-0.126
1701526956.008,19.609,19.609,-19.609,0.0023,0.0009000000000000001,0.0021000000000000003,-0.026000000000000002,-0.048,-0.126
1701526956.048,19.609,19.609,-19.609,0.0021000000000000003,-0.0006000000000000001,0.0028,-0.006,-0.059000000000000004,-0.121
1701526956.088,19.609,19.609,-19.609,0.0029000000000000002,0.0001,-0.0043,0.017,-0.049,-0.135
1701526956.128,19.609,19.609,-19.609,0.0004,-0.0009000000000000001,0.004200000000000001,0.009000000000000001,-0.039,-0.128
1701526956.168,19.609,19.609,-19.609,0.0015,0.0025,-0.0031000000000000003,-0.003,0.004,-0.117
1701526956.208,19.609,19.609,-19.609,-0.0014,0.0009000000000000001,0.002,-0.001,-0.02,-0.11
1701526956.248,19.609,19.609,-19.609,0.0021000000000000003,0.0011,-0.0028,-0.004,-0.041,-0.106
1701526956.288,19.609,19.609,-19.609,0.0,0.0034000000000000002,-0.0015,0.001,-0.06,-0.12
1701526956.328,19.609,19.609,-19.609,-0.00030000000000000003,0.00030000000000000003,-0.0009000000000000001,-0.024,-0.034,-0.105
1701526956.368,19.609,19.609,-19.609,0.0018000000000000002,0.0,0.0061,-0.032,-0.041,-0.105
1701526956.408,19.609,19.609,-19.609,0.0009000000000000001,-0.0018000000000000002,-0.0014,-0.022,-0.053,-0.115
1701526956.448,19.609,19.609,-19.609,-0.0026000000000000003,-0.0002,0.0001,-0.016,-0.044,-0.116
1701526956.488,19.609,19.609,-19.609,0.0012000000000000001,-0.0011,-0.0019,-0.016,-0.059000000000000004,-0.11800000000000001
1701526956.528,19.609,19.609,-19.609,0.0016,0.0017000000000000001,-0.005,-0.006,-0.033,-0.109
1701526956.568,19.609,19.609,-19.609,0.0009000000000000001,0.0005,0.0014,0.004,-0.043000000000000003,-0.105
1701526956.608,19.609,19.609,-19.609,-0.0025,-0.0014,-0.0054,0.0,-0.049,-0.10200000000000001
1701526956.648,19.609,19.609,-19.609,-0.0006000000000000001,-0.0007,-0.0001,-0.002,-0.042,-0.096
1701526956.688,19.609,19.609,-19.609,0.0004,0.0015,0.0012000000000000001,-0.004,-0.031,-0.098
1701526956.728,19.609,19.609,-19.609,0.0001,-0.0002,-0.0004,-0.003,-0.019,-0.115
1701526956.768,19.609,19.609,-19.609,0.001,0.0015,0.0056,-0.012,-0.019,-0.123
1701526956.8079998,19.609,19.609,-19.609,0.0008,0.0012000000000000001,-0.004,-0.026000000000000002,-0.013000000000000001,-0.131
1701526956.848,19.609,19.609,-19.609,0.0,0.0011,0.0034000000000000002,-0.035,-0.027,-0.11
1701526956.888,19.609,19.609,-19.609,0.0008,0.0016,0.0,-0.036000000000000004,-0.034,-0.113
1701526956.928,19.609,19.609,-19.609,-0.0004,-0.0011,-0.0001,-0.017,-0.027,-0.11900000000000001
1701526956.968,19.609,19.609,-19.609,-0.0004,0.0019,-0.010100000000000001,-0.011,-0.037,-0.12
1701526957.008,19.609,19.609,-19.609,0.0015,0.0019,0.0026000000000000003,-0.011,-0.036000000000000004,-0.096
1701526957.0479999,19.609,19.609,-19.609,0.0012000000000000001,0.0018000000000000002,0.004,-0.013000000000000001,-0.037,-0.098
1701526957.088,19.609,19.609,-19.609,0.00030000000000000003,0.0015,-0.0001,0.001,-0.054,-0.108
1701526957.128,19.609,19.609,-19.609,0.0014,-0.0006000000000000001,-0.0001,-0.001,-0.046,-0.109
1701526957.168,19.609,19.609,-19.609,0.0018000000000000002,0.0012000000000000001,-0.0034000000000000002,-0.012,-0.05,-0.101
1701526957.208,19.609,19.609,-19.609,0.00030000000000000003,0.0011,0.0029000000000000002,-0.001,-0.063,-0.10300000000000001
1701526957.248,19.609,19.609,-19.609,0.0011,-0.0015,-0.006200000000000001,0.006,-0.035,-0.1
1701526957.2879999,19.609,19.609,-19.609,0.0012000000000000001,-0.0023,0.0019,-0.004,-0.019,-0.121
1701526957.328,19.609,19.609,-19.609,-0.00030000000000000003,0.0015,0.0017000000000000001,-0.021,-0.022,-0.135
1701526957.368,19.609,19.609,-19.609,-0.0011,-0.0004,-0.0029000000000000002,-0.044,-0.043000000000000003,-0.122
1701526957.408,19.609,19.609,-19.609,-0.0009000000000000001,-0.0014,0.0091,-0.038,-0.052000000000000005,-0.111
1701526957.448,19.609,19.609,-19.609,0.001,-0.0009000000000000001,-0.009000000000000001,-0.024,-0.047,-0.108
1701526957.488,19.609,19.609,-19.609,-0.0016,-0.0004,-0.0012000000000000001,-0.02,-0.051000000000000004,-0.113
1701526957.5279999,19.609,19.609,-19.609,0.0004,0.0015,-0.0047,-0.009000000000000001,-0.049,-0.109
1701526957.568,19.609,19.609,-19.609,0.0007,-0.0012000000000000001,0.0009000000000000001,0.0,-0.028,-0.093
1701526957.608,19.609,19.609,-19.609,-0.00030000000000000003,0.001,0.0,0.004,-0.021,-0.10300000000000001
1701526957.648,19.609,19.609,-19.609,0.0012000000000000001,0.001,-0.0161,0.015,-0.022,-0.106
1701526957.688,19.609,19.609,-19.609,-0.0004,0.0007,-0.020800000000000003,0.0,-0.02,-0.107
1701526957.728,19.609,19.609,-19.609,0.0002,0.0001,-0.0043,-0.003,-0.038,-0.124
1701526957.768,19.609,19.609,-19.609,-0.0004,-0.001,-0.012400000000000001,-0.015,-0.046,-0.137
1701526957.808,19.609,19.609,-19.609,0.0002,-0.00030000000000000003,-0.0031000000000000003,-0.036000000000000004,-0.04,-0.125
1701526957.848,19.609,19.609,-19.609,0.0001,0.00030000000000000003,-0.0074,-0.034,-0.049,-0.116
1701526957.888,19.609,19.609,-19.609,-0.0014,-0.0005,-0.0007,-0.025,-0.055,-0.113
1701526957.928,19.609,19.609,-19.609,0.00030000000000000003,0.001,-0.0035,-0.021,-0.05,-0.109
1701526957.968,19.609,19.609,-19.609,-0.0011,0.0007,0.0043,-0.007,-0.052000000000000005,-0.107
1701526958.008,19.609,19.609,-19.609,0.0027,0.00030000000000000003,-0.0058000000000000005,0.001,-0.051000000000000004,-0.112
1701526958.048,19.609,19.609,-19.609,-0.0007,-0.0007,0.001,0.013000000000000001,-0.049,-0.11
1701526958.088,19.609,19.609,-19.609,0.0002,0.0018000000000000002,0.0026000000000000003,0.001,-0.05,-0.11900000000000001
1701526958.128,19.609,19.609,-19.609,-0.0007,-0.0004,-0.0059,-0.011,-0.034,-0.111
1701526958.168,19.609,19.609,-19.609,0.0008,0.0018000000000000002,-0.0061,-0.017,-0.021,-0.105
1701526958.208,19.609,19.609,-19.609,0.0007,0.0006000000000000001,-0.009000000000000001,-0.021,-0.003,-0.111
1701526958.248,19.609,19.609,-19.609,0.0004,-0.0005,-0.0038,-0.028,-0.021,-0.116
1701526958.288,19.609,19.609,-19.609,0.001,0.0013000000000000002,0.00030000000000000003,-0.03,-0.024,-0.101
1701526958.328,19.609,19.609,-19.609,-0.0023,-0.0002,-0.0001,-0.013000000000000001,-0.024,-0.092
1701526958.368,19.609,19.609,-19.609,-0.0009000000000000001,0.0006000000000000001,-0.0034000000000000002,-0.01,-0.036000000000000004,-0.093
1701526958.408,19.609,19.609,-19.609,-0.0011,0.0009000000000000001,-0.0017000000000000001,0.014,-0.056,-0.11800000000000001
1701526958.448,19.609,19.609,-19.609,0.0011,0.0016,0.0,0.023,-0.067,-0.115
1701526958.488,19.609,19.609,-19.609,-0.0004,-0.0017000000000000001,-0.0033,0.019,-0.07,-0.108
1701526958.528,19.609,19.609,-19.609,-0.0007,-0.0015,-0.0012000000000000001,0.01,-0.052000000000000005,-0.11
1701526958.568,19.609,19.609,-19.609,0.0007,0.0006000000000000001,-0.0048000000000000004,-0.01,-0.046,-0.108
1701526958.608,19.609,19.609,-19.609,-0.0011,-0.0029000000000000002,-0.0078000000000000005,-0.021,-0.055,-0.10400000000000001
1701526958.648,19.609,19.609,-19.609,0.0,0.0002,-0.0039000000000000003,-0.008,-0.049,-0.113
1701526958.688,19.609,19.609,-19.609,-0.0006000000000000001,-0.0028,-0.0004,-0.001,-0.046,-0.11900000000000001
1701526958.728,19.609,19.609,-19.609,-0.0018000000000000002,0.0006000000000000001,0.0017000000000000001,-0.007,-0.069,-0.115
1701526958.768,19.609,19.609,-19.609,0.002,-0.0009000000000000001,-0.0073,-0.016,-0.063,-0.116
1701526958.8079998,19.609,19.609,-19.609,0.0022,0.0,0.0056,-0.024,-0.033,-0.10400000000000001
1701526958.848,19.609,19.609,-19.609,0.0007,0.0005,-0.0037,-0.008,-0.023,-0.107
1701526958.888,19.609,19.609,-19.609,-0.001,-0.0008,-0.0032,0.014,-0.018000000000000002,-0.126
1701526958.928,19.609,19.609,-19.609,0.0009000000000000001,0.0,-0.0058000000000000005,0.003,-0.013000000000000001,-0.108
1701526958.968,19.609,19.609,-19.609,0.0028,0.0007,-0.0137,-0.008,-0.02,-0.097
1701526959.008,19.609,19.609,-19.609,0.0009000000000000001,0.0023,0.0033,-0.001,-0.033,-0.1
1701526959.0479999,19.609,19.609,-19.609,0.0018000000000000002,0.0023,-0.0058000000000000005,-0.002,-0.055,-0.098
1701526959.088,19.609,19.609,-19.609,0.0004,0.0016,0.0051,0.007,-0.05,-0.094
1701526959.128,19.609,19.609,-19.609,0.002,-0.0019,0.0001,0.017,-0.046,-0.106
1701526959.168,19.609,19.609,-19.609,0.0,-0.0009000000000000001,-0.0013000000000000002,0.011,-0.046,-0.125
1701526959.208,19.609,19.609,-19.609,-0.0001,0.0023,-0.013300000000000001,-0.016,-0.034,-0.12
1701526959.248,19.609,19.609,-19.609,-0.0007,0.0,0.002,-0.026000000000000002,-0.04,-0.123
1701526959.2879999,19.609,19.609,-19.609,0.002,0.00030000000000000003,-0.0018000000000000002,-0.02,-0.051000000000000004,-0.129
1701526959.328,19.609,19.609,-19.609,0.0011,0.0015,-0.0078000000000000005,-0.031,-0.057,-0.128
1701526959.368,19.609,19.609,-19.609,-0.00030000000000000003,0.0,0.0048000000000000004,-0.04,-0.043000000000000003,-0.112
1701526959.408,19.609,19.609,-19.609,-0.0015,0.001,-0.002,-0.038,-0.042,-0.109
1701526959.448,19.609,19.609,-19.609,0.0018000000000000002,-0.0007,0.0048000000000000004,-0.028,-0.027,-0.109
1701526959.488,19.609,19.609,-19.609,-0.0012000000000000001,-0.0001,0.0142,0.0,-0.014,-0.1
1701526959.5279999,19.609,19.609,-19.609,-0.0001,-0.0004,-0.0057,0.007,-0.03,-0.095
1701526959.568,19.609,19.609,-19.609,0.0014,0.0018000000000000002,-0.0217,0.013000000000000001,-0.053,-0.10200000000000001
1701526959.608,19.609,19.609,-19.609,0.0007,0.0001,-0.004,0.005,-0.055,-0.109
1701526959.648,19.609,19.609,-19.609,0.0018000000000000002,0.0001,-0.0006000000000000001,-0.009000000000000001,-0.051000000000000004,-0.111
1701526959.688,19.609,19.609,-19.609,-0.0006000000000000001,-0.0005,-0.0077,-0.031,-0.032,-0.10400000000000001
1701526959.728,19.609,19.609,-19.609,0.0016,0.00030000000000000003,0.0017000000000000001,-0.017,-0.021,-0.111
1701526959.768,19.609,19.609,-19.609,0.001,0.0032,-0.0007,0.005,-0.039,-0.11900000000000001
1701526959.808,19.609,19.609,-19.609,0.0022,0.0011,-0.0015,0.007,-0.052000000000000005,-0.125
1701526959.848,19.609,19.609,-19.609,-0.0009000000000000001,0.0001,0.0033,0.0,-0.068,-0.12
1701526959.888,19.609,19.609,-19.609,0.0002,-0.0043,0.0006000000000000001,-0.017,-0.06,-0.10300000000000001
1701526959.928,19.609,19.609,-19.609,0.001,-0.0016,0.0007,-0.004,-0.069,-0.094
1701526959.968,19.609,19.609,-19.609,0.0011,0.002,-0.0018000000000000002,0.007,-0.065,-0.093
1701526960.008,19.609,19.609,-19.609,0.0018000000000000002,0.0007,-0.0031000000000000003,0.036000000000000004,-0.031,-0.096
1701526960.048,19.609,19.609,-19.609,0.0002,0.00030000000000000003,-0.00030000000000000003,0.027,-0.025,-0.106
1701526960.088,19.609,19.609,-19.609,0.0,-0.0004,-0.0025,0.005,-0.012,-0.106
1701526960.128,19.609,19.609,-19.609,0.0009000000000000001,0.001,-0.0057,-0.006,-0.013000000000000001,-0.094
1701526960.168,19.609,19.609,-19.609,0.0,0.00030000000000000003,0.0015,-0.026000000000000002,-0.011,-0.1
1701526960.208,19.609,19.609,-19.609,0.0043,0.0017000000000000001,-0.0043,-0.004,-0.03,-0.111
1701526960.248,19.609,19.609,-19.609,0.0013000000000000002,0.0023,-0.0021000000000000003,-0.003,-0.043000000000000003,-0.11900000000000001
1701526960.288,19.609,19.609,-19.609,-0.002,-0.0004,-0.0061,0.009000000000000001,-0.063,-0.108
1701526960.328,19.609,19.609,-19.609,0.0,-0.0008,-0.0034000000000000002,-0.02,-0.063,-0.107
1701526960.368,19.609,19.609,-19.609,-0.00030000000000000003,-0.0012000000000000001,0.0046,0.014,-0.048,-0.112
1701526960.408,19.609,19.609,-19.609,-0.00030000000000000003,0.0019,-0.003,-0.002,-0.029,-0.106
1701526960.448,19.609,19.609,-19.609,0.0034000000000000002,0.0018000000000000002,-0.0175,-0.008,-0.035,-0.098
1701526960.488,19.609,19.609,-19.609,-0.0005,0.0026000000000000003,0.020300000000000002,0.006,-0.04,-0.11
1701526960.528,19.609,19.609,-19.609,0.0008,-0.0019,-0.0048000000000000004,0.009000000000000001,-0.032,-0.124
1701526960.568,19.609,19.609,-19.609,0.0005,-0.001,-0.0105,0.003,-0.035,-0.127
1701526960.608,19.609,19.609,-19.609,0.0017000000000000001,-0.0001,-0.010100000000000001,-0.003,-0.047,-0.12
1701526960.648,19.609,19.609,-19.609,0.0004,0.0004,0.0,-0.04,-0.045,-0.107
1701526960.688,19.609,19.609,-19.609,0.0005,0.0018000000000000002,-0.0037,-0.013000000000000001,-0.052000000000000005,-0.10200000000000001
1701526960.728,19.609,19.609,-19.609,-0.0012000000000000001,-0.0006000000000000001,-0.006200000000000001,-0.006,-0.051000000000000004,-0.11
1701526960.768,19.609,19.609,-19.609,0.0028,-0.0012000000000000001,0.0027,0.017,-0.067,-0.113
1701526960.8079998,19.609,19.609,-19.609,-0.0008,-0.0016,0.0001,0.019,-0.07200000000000001,-0.105
1701526960.848,19.609,19.609,-19.609,0.0,0.0012000000000000001,0.0019,0.015,-0.074,-0.089
1701526960.888,19.609,19.609,-19.609,0.0011,0.00030000000000000003,-0.0006000000000000001,0.012,-0.04,-0.082
1701526960.928,19.609,19.609,-19.609,-0.00030000000000000003,-0.0015,-0.004,0.021,-0.032,-0.1
1701526960.968,19.609,19.609,-19.609,0.0015,0.0007,0.0005,0.015,-0.023,-0.114
1701526961.008,19.609,19.609,-19.609,0.0016,-0.0009000000000000001,-0.0032,-0.011,-0.018000000000000002,-0.106
1701526961.0479999,19.609,19.609,-19.609,-0.0004,-0.0007,0.001,-0.025,-0.019,-0.089
1701526961.088,19.609,19.609,-19.609,0.0017000000000000001,0.0014,-0.0054,-0.003,-0.036000000000000004,-0.1
1701526961.128,19.609,19.609,-19.609,0.0009000000000000001,-0.0011,0.0004,0.023,-0.054,-0.105
1701526961.168,19.609,19.609,-19.609,-0.0009000000000000001,0.0004,0.0029000000000000002,0.014,-0.046,-0.108
1701526961.208,19.609,19.609,-19.609,0.0006000000000000001,0.0004,-0.005200000000000001,0.0,-0.057,-0.094
1701526961.248,19.609,19.609,-19.609,-0.0015,0.0018000000000000002,0.0224,-0.007,-0.045,-0.10400000000000001
1701526961.2879999,19.609,19.609,-19.609,0.0024000000000000002,0.0,-0.0154,-0.003,-0.034,-0.116
1701526961.328,19.609,19.609,-19.609,0.0009000000000000001,0.0001,-0.024900000000000002,-0.005,-0.033,-0.106
1701526961.368,19.609,19.609,-19.609,0.0031000000000000003,0.0005,0.008,-0.001,-0.043000000000000003,-0.108
1701526961.408,19.609,19.609,-19.609,0.0011,0.00030000000000000003,-0.0011,-0.004,-0.049,-0.125
1701526961.448,19.609,19.609,-19.609,0.0004,-0.0014,-0.004,-0.022,-0.042,-0.123
1701526961.488,19.609,19.609,-19.609,-0.0014,0.0016,0.0043,-0.05,-0.049,-0.127
1701526961.5279999,19.609,19.609,-19.609,0.0018000000000000002,0.0001,0.0004,-0.054,-0.044,-0.122
1701526961.568,19.609,19.609,-19.609,0.0006000000000000001,-0.0001,-0.0054,-0.038,-0.026000000000000002,-0.128
1701526961.608,19.609,19.609,-19.609,0.0011,0.0027,0.0007,-0.031,-0.031,-0.13
1701526961.648,19.609,19.609,-19.609,-0.0002,0.0008,0.0019,-0.013000000000000001,-0.034,-0.11800000000000001
1701526961.688,19.609,19.609,-19.609,-0.001,0.0004,-0.0012000000000000001,-0.001,-0.036000000000000004,-0.108
1701526961.728,19.609,19.609,-19.609,0.0006000000000000001,-0.0014,-0.0112,0.008,-0.042,-0.114
1701526961.768,19.609,19.609,-19.609,-0.0013000000000000002,-0.0004,-0.005200000000000001,0.0,-0.032,-0.106
1701526961.808,19.609,19.609,-19.609,0.0007,-0.0021000000000000003,0.0054,0.004,-0.045,-0.095
1701526961.848,19.609,19.609,-19.609,-0.0009000000000000001,0.0001,0.0007,0.005,-0.038,-0.088
1701526961.888,19.609,19.609,-19.609,0.0012000000000000001,-0.001,-0.0076,-0.005,-0.036000000000000004,-0.099
1701526961.928,19.609,19.609,-19.609,0.0015,0.0,0.0,0.007,-0.049,-0.117
1701526961.968,19.609,19.609,-19.609,0.002,0.0009000000000000001,-0.0035,-0.009000000000000001,-0.025,-0.109
1701526962.008,19.609,19.609,-19.609,0.0018000000000000002,-0.0014,-0.0009000000000000001,-0.023,-0.03,-0.1
1701526962.048,19.609,19.609,-19.609,0.0025,-0.0023,0.0058000000000000005,-0.006,-0.046,-0.10300000000000001
1701526962.088,19.609,19.609,-19.609,-0.0002,0.0014,0.001,0.015,-0.052000000000000005,-0.115
1701526962.128,19.609,19.609,-19.609,0.0016,0.0013000000000000002,-0.0025,0.017,-0.055,-0.117
1701526962.168,19.609,19.609,-19.609,-0.0006000000000000001,-0.0009000000000000001,0.0,-0.023,-0.065,-0.106
1701526962.208,19.609,19.609,-19.609,0.0007,0.0002,0.0088,-0.008,-0.01,-0.099
1701526962.248,19.609,19.609,-19.609,0.0007,-0.0001,-0.0043,-0.013000000000000001,-0.024,-0.114
1701526962.288,19.609,19.609,-19.609,0.0005,-0.0016,-0.0092,-0.026000000000000002,-0.042,-0.10300000000000001
1701526962.328,19.609,19.609,-19.609,0.0004,-0.0016,-0.0128,-0.025,-0.012,-0.106
1701526962.368,19.609,19.609,-19.609,0.002,0.0015,-0.0008,-0.019,-0.01,-0.11800000000000001
1701526962.408,19.609,19.609,-19.609,-0.0006000000000000001,0.0014,-0.0045000000000000005,-0.009000000000000001,-0.027,-0.113
1701526962.448,19.609,19.609,-19.609,0.0015,0.0025,0.001,-0.015,-0.033,-0.115
1701526962.488,19.609,19.609,-19.609,0.0017000000000000001,0.0018000000000000002,-0.0018000000000000002,-0.029,-0.039,-0.112
1701526962.528,19.609,19.609,-19.609,0.0006000000000000001,0.00030000000000000003,-0.0057,-0.019,-0.033,-0.114
1701526962.568,19.609,19.609,-19.609,-0.0013000000000000002,-0.0006000000000000001,-0.0055000000000000005,-0.018000000000000002,-0.048,-0.12
1701526962.608,19.609,19.609,-19.609,0.0009000000000000001,0.00030000000000000003,0.0014,-0.027,-0.042,-0.109
1701526962.648,19.609,19.609,-19.609,0.0021000000000000003,-0.002,-0.0036000000000000003,-0.017,-0.032,-0.101
1701526962.688,19.609,19.609,-19.609,-0.0012000000000000001,0.0,-0.00030000000000000003,-0.007,-0.026000000000000002,-0.106
1701526962.728,19.609,19.609,-19.609,0.0004,0.0005,-0.0015,0.001,-0.036000000000000004,-0.105
1701526962.768,19.609,19.609,-19.609,-0.0001,0.0012000000000000001,0.0,0.006,-0.047,-0.092
1701526962.8079998,19.609,19.609,-19.609,0.00030000000000000003,-0.0017000000000000001,0.0009000000000000001,0.01,-0.058,-0.101
1701526962.848,19.609,19.609,-19.609,-0.0002,0.0009000000000000001,-0.0043,0.011,-0.041,-0.095
1701526962.888,19.609,19.609,-19.609,-0.002,0.0006000000000000001,0.002,-0.003,-0.032,-0.1
1701526962.928,19.609,19.609,-19.609,0.0007,-0.0004,-0.005,-0.01,-0.027,-0.109
1701526962.968,19.609,19.609,-19.609,0.00030000000000000003,0.0001,-0.0009000000000000001,-0.015,-0.03,-0.092
1701526963.008,19.609,19.609,-19.609,0.0036000000000000003,0.0008,-0.0044,-0.002,-0.045,-0.097
1701526963.0479999,19.609,19.609,-19.609,0.0009000000000000001,0.0004,-0.0079,0.018000000000000002,-0.058,-0.107
1701526963.088,19.609,19.609,-19.609,0.0006000000000000001,0.0,0.0032,-0.002,-0.069,-0.106
1701526963.128,19.609,19.609,-19.609,0.0017000000000000001,-0.0001,0.004,-0.005,-0.063,-0.099
1701526963.168,19.609,19.609,-19.609,0.0002,-0.0002,-0.0148,0.001,-0.048,-0.113
1701526963.208,19.609,19.609,-19.609,-0.0002,-0.0004,-0.009600000000000001,-0.005,-0.025,-0.114
1701526963.248,19.609,19.609,-19.609,-0.0017000000000000001,0.0,-0.0036000000000000003,-0.013000000000000001,-0.013000000000000001,-0.108
1701526963.2879999,19.609,19.609,-19.609,-0.0021000000000000003,0.0012000000000000001,0.001,-0.005,-0.028,-0.105
1701526963.328,19.609,19.609,-19.609,0.0054,-0.0001,-0.010700000000000001,0.006,-0.041,-0.114
1701526963.368,19.609,19.609,-19.609,0.0025,-0.0005,0.004200000000000001,0.005,-0.039,-0.121
1701526963.408,19.609,19.609,-19.609,-0.001,0.0,-0.0013000000000000002,-0.009000000000000001,-0.027,-0.108
1701526963.448,19.609,19.609,-19.609,0.0002,-0.0013000000000000002,-0.0011,-0.021,-0.021,-0.10400000000000001
1701526963.488,19.609,19.609,-19.609,-0.00030000000000000003,0.0002,-0.0184,-0.013000000000000001,-0.031,-0.112
1701526963.5279999,19.609,19.609,-19.609,-0.0011,-0.00030000000000000003,0.0241,-0.019,-0.035,-0.11
1701526963.568,19.609,19.609,-19.609,0.00030000000000000003,-0.0014,-0.0118,-0.008,-0.051000000000000004,-0.109
1701526963.608,19.609,19.609,-19.609,0.0029000000000000002,-0.00030000000000000003,-0.006200000000000001,-0.005,-0.056,-0.108
1701526963.648,19.609,19.609,-19.609,0.0023,-0.0023,-0.003,0.004,-0.014,-0.112
1701526963.688,19.609,19.609,-19.609,0.0,-0.001,0.0031000000000000003,0.011,-0.058,-0.121
1701526963.728,19.609,19.609,-19.609,0.0001,-0.0002,0.0073,0.003,-0.053,-0.11
1701526963.768,19.609,19.609,-19.609,0.0012000000000000001,0.0,-0.0083,-0.004,-0.051000000000000004,-0.10200000000000001
1701526963.808,19.609,19.609,-19.609,0.0001,-0.001,-0.0056,-0.006,-0.037,-0.10400000000000001
1701526963.848,19.609,19.609,-19.609,0.0026000000000000003,-0.00030000000000000003,0.0,0.0,-0.035,-0.108
1701526963.888,19.609,19.609,-19.609,0.0028,-0.0006000000000000001,-0.004200000000000001,-0.009000000000000001,-0.037,-0.111
1701526963.928,19.609,19.609,-19.609,0.0011,-0.0015,-0.0059,-0.013000000000000001,-0.036000000000000004,-0.10200000000000001
1701526963.968,19.609,19.609,-19.609,-0.0012000000000000001,-0.0011,-0.0055000000000000005,-0.002,-0.038,-0.1
1701526964.008,19.609,19.609,-19.609,0.0002,-0.0001,-0.0008,0.01,-0.032,-0.10400000000000001
1701526964.048,19.609,19.609,-19.609,-0.00030000000000000003,0.001,-0.0025,0.002,-0.052000000000000005,-0.112
1701526964.088,19.609,19.609,-19.609,0.0007,0.0007,0.0054,-0.004,-0.058,-0.097
1701526964.128,19.609,19.609,-19.609,0.0001,-0.0007,-0.0032,-0.019,-0.024,-0.094
1701526964.168,19.609,19.609,-19.609,-0.0019,-0.0001,0.0077,0.007,-0.014,-0.11
1701526964.208,19.609,19.609,-19.609,0.0007,0.0001,-0.0051,-0.003,-0.002,-0.109
1701526964.248,19.609,19.609,-19.609,0.0006000000000000001,0.0001,-0.0029000000000000002,-0.017,0.005,-0.109
1701526964.288,19.609,19.609,-19.609,-0.0015,0.0007,0.0035,0.0,-0.005,-0.109
1701526964.328,19.609,19.609,-19.609,0.0018000000000000002,0.0,0.0014,-0.006,-0.015,-0.11900000000000001
1701526964.368,19.609,19.609,-19.609,-0.0001,-0.0012000000000000001,-0.0032,-0.017,-0.031,-0.116
1701526964.408,19.609,19.609,-19.609,-0.0015,-0.0001,-0.0123,-0.034,-0.031,-0.10300000000000001
1701526964.448,19.609,19.609,-19.609,0.0018000000000000002,-0.0012000000000000001,-0.001,-0.027,-0.037,-0.112
1701526964.488,19.609,19.609,-19.609,0.0006000000000000001,-0.0008,0.0046,-0.013000000000000001,-0.052000000000000005,-0.113
1701526964.528,19.609,19.609,-19.609,0.0015,0.0028,-0.0085,-0.001,-0.079,-0.111
1701526964.568,19.609,19.609,-19.609,-0.0007,-0.0015,-0.0054,0.003,-0.081,-0.111
1701526964.608,19.609,19.609,-19.609,0.0018000000000000002,0.00030000000000000003,-0.0009000000000000001,0.018000000000000002,-0.089,-0.116
1701526964.648,19.609,19.609,-19.609,0.0016,-0.0016,-0.0039000000000000003,0.028,-0.075,-0.117
1701526964.688,19.609,19.609,-19.609,0.0011,-0.0011,-0.0037,0.02,-0.068,-0.11900000000000001
1701526964.728,19.609,19.609,-19.609,0.0011,-0.002,-0.0017000000000000001,0.026000000000000002,-0.065,-0.11
1701526964.768,19.609,19.609,-19.609,0.0011,-0.0007,0.0035,0.056,-0.085,-0.12
1701526964.8079998,19.609,19.609,-19.609,-0.00030000000000000003,-0.0001,-0.0017000000000000001,0.054,-0.081,-0.126
1701526964.848,19.609,19.609,-19.609,-0.0034000000000000002,0.00030000000000000003,-0.0031000000000000003,0.064,-0.079,-0.133
1701526964.888,19.609,19.609,-19.609,0.003,0.0021000000000000003,-0.0021000000000000003,0.08700000000000001,-0.066,-0.17400000000000002
1701526964.928,19.609,19.609,-19.609,0.0015,-0.0004,0.0027,0.09,0.088,-0.17500000000000002
1701526964.968,19.609,19.609,-19.609,0.0007,0.0001,0.0029000000000000002,0.063,0.155,-0.165
1701526965.008,19.609,19.609,-19.609,-0.0026000000000000003,-0.0001,-0.0051,0.02,0.134,-0.138
1701526965.0479999,19.609,19.609,-19.609,0.0026000000000000003,0.0018000000000000002,-0.0067,-0.016,0.151,-0.133
1701526965.088,19.609,19.609,-19.609,0.0,-0.0025,0.0015,0.022,0.176,-0.16
1701526965.128,19.609,19.609,-19.609,0.0034000000000000002,-0.0006000000000000001,-0.0081,0.052000000000000005,0.165,-0.189
1701526965.168,19.609,19.609,-19.609,0.00030000000000000003,0.0025,-0.0014,0.07,0.191,-0.202
1701526965.208,19.609,19.609,-19.609,0.0006000000000000001,-0.0017000000000000001,0.0029000000000000002,0.045,0.225,-0.20400000000000001
1701526965.248,19.609,19.609,-19.609,0.0,0.0006000000000000001,-0.0125,0.041,0.224,-0.191
1701526965.2879999,19.609,19.609,-19.609,0.0015,0.0018000000000000002,0.0022,0.029,0.263,-0.167
1701526965.328,19.609,19.609,-19.609,-0.0001,0.0007,-0.0001,0.056,0.265,-0.179
1701526965.368,19.609,19.609,-19.609,0.0018000000000000002,-0.0007,0.0018000000000000002,0.081,0.383,-0.201
1701526965.408,19.609,19.609,-19.609,0.0054,0.0005,-0.0053,0.063,0.661,-0.211
1701526965.448,19.609,19.609,-19.609,0.001,0.0018000000000000002,-0.0051,-0.003,0.544,-0.226
1701526965.488,19.609,19.609,-19.609,0.001,0.0014,-0.0039000000000000003,0.049,0.377,-0.28600000000000003
1701526965.5279999,19.609,19.609,-19.609,0.0002,0.0012000000000000001,-0.0095,0.01,0.27,-0.28400000000000003
1701526965.568,19.609,19.609,-19.609,0.0012000000000000001,0.0013000000000000002,0.007200000000000001,0.039,0.198,-0.276
1701526965.608,19.609,19.609,-19.609,-0.0013000000000000002,-0.001,-0.002,0.11,0.096,-0.302
1701526965.648,19.609,19.609,-19.609,0.0004,0.0017000000000000001,-0.0111,0.114,0.081,-0.28300000000000003
1701526965.688,19.609,19.609,-19.609,-0.00030000000000000003,0.0004,0.0046,0.164,0.024,-0.279
1701526965.728,19.609,19.609,-19.609,-0.0014,0.0,-0.014100000000000001,0.148,0.03,-0.231
1701526965.768,19.609,19.609,-19.609,-0.0007,-0.0018000000000000002,-0.010400000000000001,0.196,0.096,-0.253
1701526965.808,19.609,19.609,-19.609,0.004,0.0025,-0.0043,0.152,0.202,-0.244
1701526965.848,19.609,19.609,-19.609,0.0012000000000000001,0.0018000000000000002,-0.0053,0.064,0.289,-0.273
1701526965.888,19.609,19.609,-19.609,0.0014,0.00030000000000000003,-0.0025,-0.027,0.354,-0.212
1701526965.928,19.609,19.609,-19.609,0.0001,0.0001,-0.005200000000000001,-0.156,0.297,-0.169
1701526965.968,19.609,19.609,-19.609,0.0004,0.00030000000000000003,-0.0018000000000000002,-0.17300000000000001,0.341,-0.113
1701526966.008,19.609,19.609,-19.609,0.0007,0.0008,0.0002,-0.318,0.311,0.046
1701526966.048,19.609,19.609,-19.609,0.0013000000000000002,-0.002,0.0078000000000000005,-0.331,0.147,0.097
1701526966.088,19.609,19.609,-19.609,0.0009000000000000001,-0.0023,-0.039400000000000004,-0.296,-0.024,0.10200000000000001
1701526966.128,19.609,19.609,-19.609,0.0025,-0.0012000000000000001,-0.0349,-0.25,-0.131,0.063
1701526966.168,19.609,19.609,-19.609,-0.0009000000000000001,-0.0004,-0.015300000000000001,-0.278,-0.169,0.126
1701526966.208,19.609,19.609,-19.609,0.0001,0.0004,0.007500000000000001,-0.273,-0.167,0.132
1701526966.248,19.609,19.609,-19.609,-0.0009000000000000001,-0.0009000000000000001,-0.015300000000000001,-0.244,-0.17500000000000002,0.112
1701526966.288,19.609,19.609,-19.609,0.0014,-0.0013000000000000002,0.0092,-0.23900000000000002,-0.201,0.089
1701526966.328,19.609,19.609,-19.609,-0.0029000000000000002,0.00030000000000000003,-0.0318,-0.20500000000000002,-0.233,0.024
1701526966.368,19.609,19.609,-19.609,0.0009000000000000001,-0.0007,0.042300000000000004,-0.3,-0.24,-0.033
1701526966.408,19.609,19.609,-19.609,0.0006000000000000001,0.0011,-0.0678,-0.34800000000000003,-0.325,-0.052000000000000005
1701526966.448,19.609,19.609,-19.609,-0.0025,-0.0029000000000000002,0.047900000000000005,-0.245,-0.45,-0.065
1701526966.488,19.609,19.609,-19.609,-0.0005,-0.0005,-0.0551,-0.012,-0.419,-0.08600000000000001
1701526966.528,19.609,19.609,-19.609,-0.0016,0.0002,0.048600000000000004,0.017,-0.311,-0.057
1701526966.568,19.609,19.609,-19.609,0.0015,-0.0001,-0.039900000000000005,-0.049,-0.094,0.047
1701526966.608,19.609,19.609,-19.609,0.0024000000000000002,-0.0009000000000000001,0.0118,-0.033,-0.015,0.073
1701526966.648,19.609,19.609,-19.609,0.00030000000000000003,-0.0001,-0.005,-0.122,0.035,0.065
1701526966.688,19.609,19.609,-19.609,-0.0006000000000000001,0.00030000000000000003,0.024300000000000002,-0.053,0.001,0.032
1701526966.728,19.609,19.609,-19.609,-0.0009000000000000001,0.001,-0.0252,0.03,-0.083,-0.05
1701526966.768,19.609,19.609,-19.609,0.0012000000000000001,0.001,0.0048000000000000004,0.112,-0.113,-0.059000000000000004
1701526966.8079998,19.609,19.609,-19.609,-0.0014,-0.0011,-0.0056,0.212,-0.082,-0.122
1701526966.848,19.609,19.609,-19.609,0.00030000000000000003,-0.0006000000000000001,0.018000000000000002,0.178,0.0,-0.107
1701526966.888,19.609,19.609,-19.609,0.0002,-0.002,-0.0179,0.105,0.029,-0.133
1701526966.928,19.609,19.609,-19.609,0.0002,-0.0001,-0.0367,0.054,-0.012,-0.148
1701526966.968,19.609,19.609,-19.609,0.0009000000000000001,0.0007,0.037200000000000004,0.028,-0.055,-0.155
1701526967.008,19.609,19.609,-19.609,0.0,0.0009000000000000001,-0.0366,-0.013000000000000001,-0.05,-0.147
1701526967.0479999,19.609,19.609,-19.609,-0.0017000000000000001,-0.0018000000000000002,0.0379,-0.018000000000000002,-0.051000000000000004,-0.129
1701526967.088,19.609,19.609,-19.609,0.00030000000000000003,-0.0001,-0.0302,-0.033,-0.053,-0.14
1701526967.128,19.609,19.609,-19.609,0.0026000000000000003,-0.0004,-0.009300000000000001,-0.033,-0.081,-0.134
1701526967.168,19.609,19.609,-19.609,-0.00030000000000000003,0.0005,0.0079,-0.014,-0.092,-0.122
1701526967.208,19.609,19.609,-19.609,-0.0026000000000000003,0.0007,-0.0239,-0.032,-0.07100000000000001,-0.10400000000000001
1701526967.248,19.609,19.609,-19.609,0.0006000000000000001,-0.0009000000000000001,0.0145,-0.036000000000000004,-0.063,-0.073
1701526967.2879999,19.609,19.609,-19.609,0.0013000000000000002,-0.0008,-0.0236,-0.041,-0.034,-0.063
1701526967.328,19.609,19.609,-19.609,-0.0016,-0.001,0.029900000000000003,-0.04,-0.059000000000000004,-0.085
1701526967.368,19.609,19.609,-19.609,-0.0011,0.0016,-0.0286,-0.048,0.0,-0.085
1701526967.408,19.609,19.609,-19.609,0.001,-0.0012000000000000001,0.033800000000000004,-0.054,0.0,-0.092
1701526967.448,19.609,19.609,-19.609,-0.001,0.0015,-0.0512,-0.044,-0.01,-0.109
1701526967.488,19.609,19.609,-19.609,0.0026000000000000003,-0.0015,0.047400000000000005,-0.059000000000000004,-0.019,-0.116
1701526967.5279999,19.609,19.609,-19.609,-0.0007,-0.0017000000000000001,-0.0611,-0.092,-0.031,-0.099
1701526967.568,19.609,19.609,-19.609,-0.0004,0.0004,0.0603,-0.108,-0.042,-0.081
1701526967.608,19.609,19.609,-19.609,0.0,0.00030000000000000003,0.0217,-0.1,-0.043000000000000003,-0.085
1701526967.648,19.609,19.609,-19.609,-0.0006000000000000001,-0.0007,-0.0033,-0.07100000000000001,-0.047,-0.093
1701526967.688,19.609,19.609,-19.609,0.0001,0.001,0.0103,-0.067,-0.058,-0.099
1701526967.728,19.609,19.609,-19.609,-0.0034000000000000002,-0.0011,-0.0078000000000000005,-0.035,-0.037,-0.105
1701526967.768,19.609,19.609,-19.609,-0.0019,-0.0029000000000000002,-0.0009000000000000001,-0.001,-0.057,-0.115
1701526967.808,19.609,19.609,-19.609,-0.0012000000000000001,-0.0015,0.0054,-0.036000000000000004,-0.067,-0.107
1701526967.848,19.609,19.609,-19.609,-0.0009000000000000001,-0.0007,-0.0223,-0.054,-0.045,-0.094
1701526967.888,19.609,19.609,-19.609,-0.0001,-0.0008,0.0085,-0.063,-0.094,-0.093
1701526967.928,19.609,19.609,-19.609,0.0011,0.0015,0.0,-0.081,-0.084,-0.092
1701526967.968,19.609,19.609,-19.609,0.0011,0.00030000000000000003,-0.023700000000000002,-0.076,-0.06,-0.075
1701526968.008,19.609,19.609,-19.609,-0.0018000000000000002,0.0,0.0307,-0.07,-0.068,-0.076
1701526968.048,19.609,19.609,-19.609,0.0009000000000000001,-0.0007,-0.0117,-0.035,-0.065,-0.092
1701526968.088,19.609,19.609,-19.609,0.0004,-0.0009000000000000001,-0.0056,-0.04,-0.051000000000000004,-0.089
1701526968.128,19.609,19.609,-19.609,-0.00030000000000000003,-0.0006000000000000001,0.00030000000000000003,-0.081,-0.023,-0.065
1701526968.168,19.609,19.609,-19.609,0.0014,0.0004,0.007,-0.052000000000000005,-0.055,-0.041
1701526968.208,19.609,19.609,-19.609,0.0023,-0.00030000000000000003,-0.0115,-0.016,-0.10300000000000001,-0.043000000000000003
1701526968.248,19.609,19.609,-19.609,0.0004,0.0006000000000000001,-0.0118,-0.049,-0.093,-0.041
1701526968.288,19.609,19.609,-19.609,-0.0011,-0.0002,-0.0025,-0.01,-0.116,-0.079
1701526968.328,19.609,19.609,-19.609,-0.0014,-0.0001,-0.007200000000000001,0.025,-0.117,-0.111
1701526968.368,19.609,19.609,-19.609,0.0014,0.0017000000000000001,0.004200000000000001,0.021,-0.076,-0.106
1701526968.408,19.609,19.609,-19.609,0.001,0.0004,0.0029000000000000002,-0.003,-0.069,-0.094
1701526968.448,19.609,19.609,-19.609,-0.0007,-0.0004,0.007200000000000001,0.012,-0.07100000000000001,-0.1
1701526968.488,19.609,19.609,-19.609,0.0005,0.0,-0.0009000000000000001,0.009000000000000001,-0.067,-0.113
1701526968.528,19.609,19.609,-19.609,-0.0015,-0.0018000000000000002,-0.0076,-0.001,-0.084,-0.126
1701526968.568,19.609,19.609,-19.609,0.002,-0.0001,0.0164,0.003,-0.09,-0.123
1701526968.608,19.609,19.609,-19.609,-0.0004,0.0014,0.012,0.01,-0.09,-0.124
1701526968.648,19.609,19.609,-19.609,-0.0004,0.0014,0.0079,0.004,-0.054,-0.10400000000000001
1701526968.688,19.609,19.609,-19.609,0.0001,0.0002,0.0085,0.001,-0.014,-0.107
1701526968.728,19.609,19.609,-19.609,0.0022,-0.0006000000000000001,-0.001,0.002,-0.008,-0.117
1701526968.768,19.609,19.609,-19.609,0.0013000000000000002,0.0,-0.0031000000000000003,0.01,-0.015,-0.114
1701526968.8079998,19.609,19.609,-19.609,-0.0001,0.0001,-0.0076,-0.005,-0.014,-0.115
1701526968.848,19.609,19.609,-19.609,0.0005,-0.0028,-0.0001,-0.029,-0.014,-0.111
1701526968.888,19.609,19.609,-19.609,-0.0017000000000000001,-0.0004,0.0031000000000000003,-0.016,-0.019,-0.105
1701526968.928,19.609,19.609,-19.609,-0.0005,0.0002,-0.0077,-0.012,-0.024,-0.129
1701526968.968,19.609,19.609,-19.609,-0.0005,-0.0009000000000000001,-0.0004,-0.019,-0.032,-0.13
1701526969.008,19.609,19.609,-19.609,-0.0017000000000000001,0.0004,0.0,-0.02,-0.039,-0.124
1701526969.0479999,19.609,19.609,-19.609,-0.0006000000000000001,-0.0007,-0.0048000000000000004,-0.02,-0.046,-0.11900000000000001
1701526969.088,19.609,19.609,-19.609,-0.0008,-0.0006000000000000001,0.0009000000000000001,-0.021,-0.031,-0.109
1701526969.128,19.609,19.609,-19.609,0.0012000000000000001,-0.0006000000000000001,-0.00030000000000000003,-0.007,-0.077,-0.12
1701526969.168,19.609,19.609,-19.609,0.0006000000000000001,0.0017000000000000001,0.009300000000000001,-0.007,-0.041,-0.11800000000000001
1701526969.208,19.609,19.609,-19.609,0.0015,-0.0011,-0.028300000000000002,-0.01,-0.041,-0.10300000000000001
1701526969.248,19.609,19.609,-19.609,-0.0017000000000000001,-0.0012000000000000001,0.034300000000000004,0.011,-0.032,-0.10400000000000001
1701526969.2879999,19.609,19.609,-19.609,0.0009000000000000001,0.0,-0.01,0.003,-0.041,-0.123
1701526969.328,19.609,19.609,-19.609,0.0016,-0.0013000000000000002,-0.0134,0.003,-0.039,-0.107
1701526969.368,19.609,19.609,-19.609,0.0009000000000000001,-0.0004,-0.0067,-0.013000000000000001,-0.047,-0.099
1701526969.408,19.609,19.609,-19.609,0.001,0.0001,0.0017000000000000001,-0.002,-0.027,-0.105
1701526969.448,19.609,19.609,-19.609,-0.0004,-0.002,-0.0108,0.01,-0.042,-0.11800000000000001
1701526969.488,19.609,19.609,-19.609,0.0008,-0.002,0.0183,-0.007,-0.07,-0.109
1701526969.5279999,19.609,19.609,-19.609,0.0014,-0.0004,-0.0229,0.0,-0.03,-0.093
1701526969.568,19.609,19.609,-19.609,-0.0011,0.0002,-0.0159,0.008,-0.022,-0.105
1701526969.608,19.609,19.609,-19.609,-0.0015,-0.0031000000000000003,-0.0021000000000000003,-0.012,-0.032,-0.122
1701526969.648,19.609,19.609,-19.609,0.0011,-0.00030000000000000003,0.0235,-0.013000000000000001,-0.016,-0.124
1701526969.688,19.609,19.609,-19.609,0.00030000000000000003,0.0012000000000000001,-0.0112,-0.018000000000000002,-0.032,-0.112
1701526969.728,19.609,19.609,-19.609,-0.001,-0.0009000000000000001,0.0049,0.0,-0.053,-0.121
1701526969.768,19.609,19.609,-19.609,-0.0007,0.0002,-0.0098,-0.002,-0.046,-0.112
1701526969.808,19.609,19.609,-19.609,0.0008,0.0004,0.008400000000000001,0.002,-0.043000000000000003,-0.112
1701526969.848,19.609,19.609,-19.609,-0.0017000000000000001,-0.001,-0.016900000000000002,0.004,-0.038,-0.113
1701526969.888,19.609,19.609,-19.609,0.0007,0.00030000000000000003,0.0043,0.0,-0.041,-0.113
1701526969.928,19.609,19.609,-19.609,0.0007,0.0018000000000000002,-0.004200000000000001,-0.009000000000000001,-0.036000000000000004,-0.109
1701526969.968,19.609,19.609,-19.609,-0.0006000000000000001,-0.0011,-0.006500000000000001,-0.013000000000000001,-0.026000000000000002,-0.113
1701526970.008,19.609,19.609,-19.609,-0.0009000000000000001,0.0008,0.0023,-0.006,-0.025,-0.117
1701526970.048,19.609,19.609,-19.609,0.0014,-0.0001,-0.0088,-0.009000000000000001,-0.03,-0.11800000000000001
1701526970.088,19.609,19.609,-19.609,0.0009000000000000001,-0.0014,0.0055000000000000005,-0.013000000000000001,-0.046,-0.114
1701526970.128,19.609,19.609,-19.609,0.0008,-0.0012000000000000001,-0.0071,-0.025,-0.042,-0.093
1701526970.168,19.609,19.609,-19.609,0.0012000000000000001,0.0001,-0.0025,-0.005,-0.054,-0.091
1701526970.208,19.609,19.609,-19.609,0.002,-0.0008,-0.0221,0.017,-0.051000000000000004,-0.095
1701526970.248,19.609,19.609,-19.609,0.0028,0.0006000000000000001,0.030000000000000002,0.009000000000000001,-0.055,-0.105
1701526970.288,19.609,19.609,-19.609,0.0014,-0.0009000000000000001,-0.008400000000000001,0.004,-0.051000000000000004,-0.1
1701526970.328,19.609,19.609,-19.609,0.0,-0.0011,-0.014,0.002,-0.041,-0.105
1701526970.368,19.609,19.609,-19.609,-0.0008,0.0,-0.0076,0.006,-0.043000000000000003,-0.105
1701526970.408,19.609,19.609,-19.609,0.0012000000000000001,-0.0005,0.0047,-0.002,-0.039,-0.10200000000000001
1701526970.448,19.609,19.609,-19.609,0.0005,0.0021000000000000003,0.0001,-0.023,-0.01,-0.093
1701526970.488,19.609,19.609,-19.609,-0.0007,0.001,-0.0102,-0.013000000000000001,0.004,-0.109
1701526970.528,19.609,19.609,-19.609,0.0016,0.00030000000000000003,-0.0053,-0.076,0.14300000000000002,-0.10200000000000001
1701526970.568,19.609,19.609,-19.609,-0.0004,0.00030000000000000003,-0.0022,-0.125,0.129,-0.088
1701526970.608,19.609,19.609,-19.609,0.0009000000000000001,-0.0014,-0.0135,-0.021,-0.226,-0.109
1701526970.648,19.609,19.609,-19.609,0.0007,0.0007,0.0082,0.138,-0.483,-0.12
1701526970.688,19.609,19.609,-19.609,0.0027,-0.0006000000000000001,-0.0032,0.217,-0.518,-0.163
1701526970.728,19.609,19.609,-19.609,0.0009000000000000001,-0.0022,-0.007200000000000001,0.168,-0.325,-0.157
1701526970.768,19.609,19.609,-19.609,-0.0021000000000000003,0.0012000000000000001,-0.0018000000000000002,0.154,-0.028,-0.203
1701526970.8079998,19.609,19.609,-19.609,0.0004,0.0005,0.0012000000000000001,0.08700000000000001,0.075,-0.169
1701526970.848,19.609,19.609,-19.609,0.0,0.0011,-0.0036000000000000003,0.032,0.036000000000000004,-0.113
1701526970.888,19.609,19.609,-19.609,0.0024000000000000002,0.0004,-0.0009000000000000001,0.042,-0.133,-0.107
1701526970.928,19.609,19.609,-19.609,0.0023,-0.0005,-0.007200000000000001,0.035,-0.20800000000000002,-0.122
1701526970.968,19.609,19.609,-19.609,-0.0013000000000000002,-0.0011,0.0017000000000000001,0.042,-0.192,-0.117
1701526971.008,19.609,19.609,-19.609,-0.0006000000000000001,0.0018000000000000002,-0.0015,0.007,-0.06,-0.115
1701526971.0479999,19.609,19.609,-19.609,0.0011,0.0013000000000000002,0.0045000000000000005,-0.07100000000000001,0.056,-0.079
1701526971.088,19.609,19.609,-19.609,0.007,0.0021000000000000003,-0.0112,-0.048,0.06,-0.097
1701526971.128,19.609,19.609,-19.609,0.0,0.0004,-0.0008,-0.025,0.055,-0.121
1701526971.168,19.609,19.609,-19.609,0.0015,-0.0004,-0.006900000000000001,-0.07,0.015,-0.098
1701526971.208,19.609,19.609,-19.609,0.0016,-0.0002,-0.0054,-0.032,-0.008,-0.107
1701526971.248,19.609,19.609,-19.609,0.0012000000000000001,-0.0024000000000000002,0.0028,-0.039,-0.03,-0.11900000000000001
1701526971.2879999,19.609,19.609,-19.609,-0.0022,-0.0011,-0.0021000000000000003,0.005,-0.052000000000000005,-0.117
1701526971.328,19.609,19.609,-19.609,-0.0007,0.0018000000000000002,-0.013000000000000001,0.059000000000000004,-0.068,-0.157
1701526971.368,19.609,19.609,-19.609,0.0009000000000000001,-0.001,0.01,0.07100000000000001,0.034,-0.112
1701526971.408,19.609,19.609,-19.609,0.0006000000000000001,0.0009000000000000001,-0.0027,0.043000000000000003,0.269,-0.076
1701526971.448,19.609,19.609,-19.609,-0.0004,0.0006000000000000001,-0.0651,0.046,0.254,-0.091
1701526971.488,19.609,19.609,-19.609,0.0023,0.0006000000000000001,0.0122,0.023,0.145,-0.152
1701526971.5279999,19.609,19.609,-19.609,0.0012000000000000001,0.0001,-0.046200000000000005,-0.073,0.10300000000000001,-0.083
1701526971.568,19.609,19.609,-19.609,0.0006000000000000001,0.0006000000000000001,0.0341,-0.047,0.026000000000000002,-0.091
1701526971.608,19.609,19.609,-19.609,0.0006000000000000001,-0.0015,-0.0454,-0.032,-0.028,-0.14300000000000002
1701526971.648,19.609,19.609,-19.609,0.0,0.0007,0.0397,-0.049,-0.042,-0.134
1701526971.688,19.609,19.609,-19.609,0.0004,-0.0014,-0.0332,-0.045,-0.065,-0.111
1701526971.728,19.609,19.609,-19.609,-0.0008,0.00030000000000000003,0.0094,-0.034,-0.058,-0.091
1701526971.768,19.609,19.609,-19.609,0.0001,-0.001,-0.014700000000000001,-0.027,-0.05,-0.096
1701526971.808,19.609,19.609,-19.609,0.0016,0.0001,0.0213,0.0,-0.032,-0.136
1701526971.848,19.609,19.609,-19.609,0.0015,0.0001,-0.0379,-0.005,-0.004,-0.154
1701526971.888,19.609,19.609,-19.609,-0.0057,0.0,0.0221,-0.01,-0.003,-0.178
1701526971.928,19.609,19.609,-19.609,0.0023,0.0004,-0.0577,-0.029,-0.008,-0.156
1701526971.968,19.609,19.609,-19.609,0.0004,-0.0032,0.06380000000000001,-0.062,-0.023,-0.128
1701526972.008,19.609,19.609,-19.609,0.0004,-0.0006000000000000001,0.0175,-0.053,-0.041,-0.136
1701526972.048,19.609,19.609,-19.609,0.002,0.0015,-0.006,-0.055,-0.017,-0.139
1701526972.088,19.609,19.609,-19.609,-0.0023,0.0012000000000000001,0.0143,-0.064,-0.004,-0.117
1701526972.128,19.609,19.609,-19.609,0.0001,0.0014,-0.0019,-0.064,-0.003,-0.10200000000000001
1701526972.168,19.609,19.609,-19.609,0.0006000000000000001,0.0006000000000000001,0.0,-0.05,-0.018000000000000002,-0.10200000000000001
1701526972.208,19.609,19.609,-19.609,0.0009000000000000001,0.0004,-0.0217,-0.04,-0.022,-0.11
1701526972.248,19.609,19.609,-19.609,-0.0027,0.0015,0.0009000000000000001,-0.06,0.003,-0.094
1701526972.288,19.609,19.609,-19.609,-0.0027,-0.001,-0.005,-0.051000000000000004,0.03,-0.1
1701526972.328,19.609,19.609,-19.609,0.0008,-0.0004,-0.0103,-0.008,0.042,-0.121
1701526972.368,19.609,19.609,-19.609,0.00030000000000000003,0.00030000000000000003,-0.006,-0.013000000000000001,0.042,-0.116
1701526972.408,19.609,19.609,-19.609,-0.0001,0.0015,-0.055400000000000005,-0.013000000000000001,0.039,-0.098
1701526972.448,19.609,19.609,-19.609,0.0006000000000000001,0.0018000000000000002,-0.0059,-0.029,0.032,-0.089
1701526972.488,19.609,19.609,-19.609,-0.0012000000000000001,-0.0011,-0.0046,-0.033,-0.001,-0.105
1701526972.528,19.609,19.609,-19.609,0.0006000000000000001,-0.002,0.0022,-0.018000000000000002,-0.04,-0.07
1701526972.568,19.609,19.609,-19.609,0.0032,0.0006000000000000001,-0.0268,-0.074,-0.067,-0.049
1701526972.608,19.609,19.609,-19.609,0.0024000000000000002,0.0014,0.047900000000000005,-0.038,-0.077,-0.08
1701526972.648,19.609,19.609,-19.609,-0.0006000000000000001,-0.0007,-0.0502,-0.017,-0.038,-0.085
1701526972.688,19.609,19.609,-19.609,-0.002,-0.0006000000000000001,0.019200000000000002,-0.036000000000000004,-0.003,-0.097
1701526972.728,19.609,19.609,-19.609,-0.0002,-0.0018000000000000002,-0.0083,-0.001,-0.006,-0.132
1701526972.768,19.609,19.609,-19.609,0.0029000000000000002,0.001,0.0007,0.012,-0.021,-0.099
1701526972.8079998,19.609,19.609,-19.609,0.0001,0.0007,-0.011300000000000001,-0.018000000000000002,-0.053,-0.078
1701526972.848,19.609,19.609,-19.609,-0.0015,-0.0023,0.0076,-0.015,-0.023,-0.064
1701526972.888,19.609,19.609,-19.609,0.00030000000000000003,-0.001,0.0083,0.023,-0.025,-0.109
1701526972.928,19.609,19.609,-19.609,0.0001,0.00030000000000000003,-0.031900000000000005,-0.01,-0.007,-0.121
1701526972.968,19.609,19.609,-19.609,-0.0002,-0.00030000000000000003,-0.001,-0.026000000000000002,-0.039,-0.128
1701526973.008,19.609,19.609,-19.609,-0.0009000000000000001,-0.0007,0.0148,-0.07200000000000001,-0.028,-0.139
1701526973.0479999,19.609,19.609,-19.609,0.0011,0.0012000000000000001,-0.0364,-0.04,-0.026000000000000002,-0.14400000000000002
1701526973.088,19.609,19.609,-19.609,0.00030000000000000003,-0.001,0.0495,-0.011,-0.019,-0.165
1701526973.128,19.609,19.609,-19.609,-0.0015,-0.0018000000000000002,-0.0261,-0.043000000000000003,-0.005,-0.154
1701526973.168,19.609,19.609,-19.609,0.0,-0.0021000000000000003,-0.0057,-0.041,0.01,-0.123
1701526973.208,19.609,19.609,-19.609,0.0011,-0.001,-0.0123,-0.026000000000000002,-0.009000000000000001,-0.126
1701526973.248,19.609,19.609,-19.609,-0.00030000000000000003,0.0014,0.0029000000000000002,-0.019,-0.052000000000000005,-0.131
1701526973.2879999,19.609,19.609,-19.609,-0.0039000000000000003,-0.0027,-0.0267,-0.005,0.006,-0.133
1701526973.328,19.609,19.609,-19.609,0.0001,-0.0016,0.0425,-0.001,-0.038,-0.14200000000000002
1701526973.368,19.609,19.609,-19.609,0.0006000000000000001,-0.0002,-0.0403,-0.02,-0.039,-0.125
1701526973.408,19.609,19.609,-19.609,-0.001,0.0,0.0115,-0.006,-0.024,-0.124
1701526973.448,19.609,19.609,-19.609,0.0002,0.0004,-0.003,-0.029,-0.005,-0.105
1701526973.488,19.609,19.609,-19.609,-0.001,-0.002,-0.0175,-0.021,0.005,-0.095
1701526973.5279999,19.609,19.609,-19.609,0.0009000000000000001,0.0006000000000000001,0.040100000000000004,-0.002,-0.008,-0.10400000000000001
1701526973.568,19.609,19.609,-19.609,-0.0035,-0.0021000000000000003,-0.030500000000000003,-0.003,-0.025,-0.105
1701526973.608,19.609,19.609,-19.609,-0.001,-0.0015,0.0021000000000000003,-0.002,-0.034,-0.116
1701526973.648,19.609,19.609,-19.609,0.0014,0.0004,-0.0048000000000000004,-0.009000000000000001,-0.042,-0.113
1701526973.688,19.609,19.609,-19.609,-0.0007,-0.0017000000000000001,-0.0195,-0.028,-0.041,-0.11
1701526973.728,19.609,19.609,-19.609,0.0025,-0.001,0.0057,-0.019,-0.032,-0.11900000000000001
1701526973.768,19.609,19.609,-19.609,-0.00030000000000000003,-0.0014,0.0206,0.0,-0.015,-0.10300000000000001
1701526973.808,19.609,19.609,-19.609,-0.0014,0.0012000000000000001,-0.013600000000000001,0.021,-0.012,-0.109
1701526973.848,19.609,19.609,-19.609,-0.0004,0.0004,-0.024900000000000002,0.039,-0.027,-0.107
1701526973.888,19.609,19.609,-19.609,0.0021000000000000003,0.0,0.0388,0.023,-0.048,-0.095
1701526973.928,19.609,19.609,-19.609,0.00030000000000000003,0.001,-0.0597,0.017,-0.047,-0.092
1701526973.968,19.609,19.609,-19.609,0.0004,-0.0017000000000000001,0.055600000000000004,0.02,-0.058,-0.1
1701526974.008,19.609,19.609,-19.609,0.0004,-0.0012000000000000001,-0.0432,0.007,-0.055,-0.108
1701526974.048,19.609,19.609,-19.609,-0.0005,0.0018000000000000002,-0.0524,0.013000000000000001,-0.069,-0.113
1701526974.088,19.609,19.609,-19.609,0.0002,-0.0007,0.0201,-0.012,-0.047,-0.10400000000000001
1701526974.128,19.609,19.609,-19.609,-0.001,-0.0023,-0.0358,-0.016,-0.029,-0.124
1701526974.168,19.609,19.609,-19.609,-0.0006000000000000001,0.0008,0.0117,-0.033,-0.018000000000000002,-0.137
1701526974.208,19.609,19.609,-19.609,-0.0012000000000000001,-0.0012000000000000001,-0.0328,-0.02,-0.031,-0.14200000000000002
1701526974.248,19.609,19.609,-19.609,0.0008,0.0008,0.0487,-0.007,-0.056,-0.152
1701526974.288,19.609,19.609,-19.609,0.0004,-0.0006000000000000001,-0.0327,-0.013000000000000001,-0.067,-0.166
1701526974.328,19.609,19.609,-19.609,0.0011,0.0004,-0.0083,-0.005,-0.067,-0.169
1701526974.368,19.609,19.609,-19.609,-0.0014,-0.0005,0.0148,-0.029,-0.042,-0.192
1701526974.408,19.609,19.609,-19.609,0.0001,-0.0041,-0.028,-0.04,-0.036000000000000004,-0.201
1701526974.448,19.609,19.609,-19.609,-0.0004,0.0013000000000000002,0.0077,-0.061,-0.012,-0.197
1701526974.488,19.609,19.609,-19.609,0.0023,-0.00030000000000000003,0.028,-0.082,0.008,-0.177
1701526974.528,19.609,19.609,-19.609,0.0007,-0.0007,-0.0206,-0.111,0.025,-0.14400000000000002
1701526974.568,19.609,19.609,-19.609,0.0,-0.0022,-0.0151,-0.124,0.032,-0.13
1701526974.608,19.609,19.609,-19.609,-0.0017000000000000001,0.0,0.014,-0.158,0.021,-0.095
1701526974.648,19.609,19.609,-19.609,-0.001,0.0006000000000000001,0.0076,-0.098,-0.052000000000000005,-0.09
1701526974.688,19.609,19.609,-19.609,-0.001,-0.0011,-0.016800000000000002,-0.056,-0.131,-0.08600000000000001
1701526974.728,19.609,19.609,-19.609,0.00030000000000000003,-0.0023,-0.041100000000000005,-0.024,-0.134,-0.09
1701526974.768,19.609,19.609,-19.609,0.0007,-0.0006000000000000001,0.0461,-0.023,-0.111,-0.07100000000000001
1701526974.8079998,19.609,19.609,-19.609,0.0013000000000000002,0.00030000000000000003,-0.0341,-0.049,-0.092,-0.084
1701526974.848,19.609,19.609,-19.609,0.0022,-0.0013000000000000002,0.008,-0.031,-0.083,-0.1
1701526974.888,19.609,19.609,-19.609,-0.0025,0.00030000000000000003,0.021,-0.055,-0.079,-0.098
1701526974.928,19.609,19.609,-19.609,0.0021000000000000003,0.0,-0.0425,-0.045,-0.091,-0.10300000000000001
1701526974.968,19.609,19.609,-19.609,0.0017000000000000001,-0.0012000000000000001,0.0058000000000000005,-0.027,-0.08600000000000001,-0.111
1701526975.008,19.609,19.609,-19.609,0.0009000000000000001,0.003,-0.005,0.001,-0.092,-0.11800000000000001
1701526975.0479999,19.609,19.609,-19.609,-0.00030000000000000003,-0.001,0.0105,0.053,-0.114,-0.11800000000000001
1701526975.088,19.609,19.609,-19.609,0.0017000000000000001,0.0013000000000000002,-0.0074,0.03,-0.123,-0.11800000000000001
1701526975.128,19.609,19.609,-19.609,-0.0018000000000000002,-0.0014,-0.0001,0.023,-0.107,-0.106
1701526975.168,19.609,19.609,-19.609,0.0019,0.0011,-0.0149,0.05,-0.065,-0.127
1701526975.208,19.609,19.609,-19.609,-0.0004,0.0001,0.0082,0.058,-0.032,-0.14
1701526975.248,19.609,19.609,-19.609,-0.0001,-0.0015,-0.0034000000000000002,0.068,-0.042,-0.152
1701526975.2879999,19.609,19.609,-19.609,-0.0012000000000000001,-0.0018000000000000002,-0.0159,0.048,-0.08,-0.14400000000000002
1701526975.328,19.609,19.609,-19.609,0.0026000000000000003,0.0019,0.0031000000000000003,0.018000000000000002,-0.061,-0.11
1701526975.368,19.609,19.609,-19.609,0.0023,-0.0009000000000000001,-0.0053,0.013000000000000001,-0.057,-0.113
1701526975.408,19.609,19.609,-19.609,-0.0017000000000000001,0.0007,-0.0148,0.0,-0.059000000000000004,-0.134
1701526975.448,19.609,19.609,-19.609,0.0026000000000000003,0.0,0.037000000000000005,-0.017,-0.044,-0.133
1701526975.488,19.609,19.609,-19.609,-0.0001,0.0005,-0.0485,-0.021,-0.035,-0.129
1701526975.5279999,19.609,19.609,-19.609,-0.001,0.002,0.047,-0.031,-0.042,-0.135
1701526975.568,19.609,19.609,-19.609,-0.0001,0.0011,-0.0296,-0.044,-0.045,-0.121
1701526975.608,19.609,19.609,-19.609,0.0004,-0.0006000000000000001,0.0131,-0.033,-0.049,-0.126
1701526975.648,19.609,19.609,-19.609,-0.0017000000000000001,0.0,-0.0224,-0.019,-0.057,-0.136
1701526975.688,19.609,19.609,-19.609,0.0005,-0.0002,-0.0043,-0.031,-0.049,-0.125
1701526975.728,19.609,19.609,-19.609,-0.0006000000000000001,-0.0007,0.0001,-0.046,-0.049,-0.115
1701526975.768,19.609,19.609,-19.609,-0.0021000000000000003,-0.0019,-0.0316,-0.054,-0.034,-0.095
1701526975.808,19.609,19.609,-19.609,-0.0015,-0.0017000000000000001,0.013900000000000001,-0.059000000000000004,-0.027,-0.08700000000000001
1701526975.848,19.609,19.609,-19.609,-0.002,-0.001,-0.024300000000000002,-0.065,-0.007,-0.094
1701526975.888,19.609,19.609,-19.609,0.0022,-0.00030000000000000003,0.034800000000000005,-0.074,0.01,-0.10300000000000001
1701526975.928,19.609,19.609,-19.609,-0.0016,-0.0015,-0.0303,-0.092,0.033,-0.085
1701526975.968,19.609,19.609,-19.609,0.0026000000000000003,0.0005,0.0009000000000000001,-0.085,0.001,-0.07200000000000001
1701526976.008,19.609,19.609,-19.609,-0.0006000000000000001,-0.0007,0.0154,0.003,-0.063,-0.073
1701526976.048,19.609,19.609,-19.609,-0.0004,-0.0009000000000000001,-0.0119,0.039,-0.114,-0.077
1701526976.088,19.609,19.609,-19.609,0.0002,-0.002,-0.0095,0.076,-0.136,-0.067
1701526976.128,19.609,19.609,-19.609,0.0014,-0.0002,0.0142,0.075,-0.11800000000000001,-0.042
1701526976.168,19.609,19.609,-19.609,0.0,-0.0017000000000000001,-0.031100000000000003,-0.01,-0.062,-0.029
1701526976.208,19.609,19.609,-19.609,-0.002,0.00030000000000000003,0.0261,0.043000000000000003,-0.073,-0.079
1701526976.248,19.609,19.609,-19.609,0.0022,0.0023,-0.043300000000000005,0.027,-0.046,-0.091
1701526976.288,19.609,19.609,-19.609,-0.0016,-0.002,0.004200000000000001,0.02,-0.024,-0.084
1701526976.328,19.609,19.609,-19.609,0.0021000000000000003,-0.0002,0.0063,0.012,-0.037,-0.09
1701526976.368,19.609,19.609,-19.609,-0.0001,0.0004,-0.0117,0.02,-0.045,-0.098
1701526976.408,19.609,19.609,-19.609,-0.0009000000000000001,-0.001,0.013300000000000001,0.006,-0.045,-0.1
1701526976.448,19.609,19.609,-19.609,-0.0004,-0.001,-0.041,-0.013000000000000001,-0.041,-0.10300000000000001
1701526976.488,19.609,19.609,-19.609,-0.0001,-0.0001,0.045000000000000005,-0.006,-0.038,-0.114
1701526976.528,19.609,19.609,-19.609,0.005200000000000001,0.0,-0.0224,-0.001,-0.05,-0.117
1701526976.568,19.609,19.609,-19.609,-0.0012000000000000001,0.0006000000000000001,0.0098,-0.027,-0.007,-0.108
1701526976.608,19.609,19.609,-19.609,0.0015,0.0002,-0.018000000000000002,-0.054,0.012,-0.091
1701526976.648,19.609,19.609,-19.609,0.0006000000000000001,-0.0006000000000000001,0.019100000000000002,-0.048,0.027,-0.115
1701526976.688,19.609,19.609,-19.609,0.0004,-0.00030000000000000003,-0.010700000000000001,-0.04,0.009000000000000001,-0.107
1701526976.728,19.609,19.609,-19.609,0.0014,-0.0008,-0.0313,-0.006,-0.038,-0.107
1701526976.768,19.609,19.609,-19.609,-0.0006000000000000001,0.0015,0.038,-0.004,-0.094,-0.106
1701526976.8079998,19.609,19.609,-19.609,-0.0001,-0.0007,-0.0504,-0.005,-0.089,-0.094
1701526976.848,19.609,19.609,-19.609,-0.0039000000000000003,-0.0004,0.018600000000000002,0.004,-0.088,-0.096
1701526976.888,19.609,19.609,-19.609,0.0001,-0.0002,0.0247,0.003,-0.082,-0.099
1701526976.928,19.609,19.609,-19.609,0.004,-0.0009000000000000001,-0.0509,-0.008,-0.097,-0.09
1701526976.968,19.609,19.609,-19.609,-0.0001,-0.0009000000000000001,0.041600000000000005,-0.007,-0.105,-0.083
1701526977.008,19.609,19.609,-19.609,0.0031000000000000003,-0.0001,-0.0362,0.02,-0.116,-0.096
1701526977.0479999,19.609,19.609,-19.609,-0.0024000000000000002,0.0002,0.026500000000000003,0.034,-0.108,-0.11900000000000001
1701526977.088,19.609,19.609,-19.609,-0.0001,-0.0009000000000000001,-0.0268,0.032,-0.091,-0.122
1701526977.128,19.609,19.609,-19.609,-0.0011,-0.0004,0.019100000000000002,0.029,-0.082,-0.124
1701526977.168,19.609,19.609,-19.609,0.0008,0.0002,-0.0403,0.023,-0.064,-0.113
1701526977.208,19.609,19.609,-19.609,-0.0005,0.0017000000000000001,0.0142,0.012,-0.052000000000000005,-0.113
1701526977.248,19.609,19.609,-19.609,0.001,-0.0001,-0.0152,0.007,-0.047,-0.116
1701526977.2879999,19.609,19.609,-19.609,0.0014,0.0009000000000000001,0.0126,-0.006,-0.038,-0.12
1701526977.328,19.609,19.609,-19.609,0.0009000000000000001,-0.001,-0.0187,-0.017,-0.016,-0.124
1701526977.368,19.609,19.609,-19.609,-0.0018000000000000002,0.001,0.0488,-0.016,-0.009000000000000001,-0.126
1701526977.408,19.609,19.609,-19.609,0.00030000000000000003,-0.0001,-0.0427,-0.014,-0.006,-0.128
1701526977.448,19.609,19.609,-19.609,0.0031000000000000003,0.0005,0.0204,-0.019,-0.008,-0.126
1701526977.488,19.609,19.609,-19.609,0.0015,0.0001,-0.035,-0.019,-0.019,-0.125
1701526977.5279999,19.609,19.609,-19.609,0.0,0.0005,0.0363,-0.005,-0.016,-0.128
1701526977.568,19.609,19.609,-19.609,0.0001,0.00030000000000000003,-0.0181,-0.008,-0.017,-0.14200000000000002
1701526977.608,19.609,19.609,-19.609,-0.0007,0.0017000000000000001,0.0324,-0.026000000000000002,-0.013000000000000001,-0.138
1701526977.648,19.609,19.609,-19.609,0.0016,-0.0001,-0.013300000000000001,-0.041,-0.029,-0.12
1701526977.688,19.609,19.609,-19.609,-0.0011,-0.0007,0.033800000000000004,-0.028,-0.04,-0.123
1701526977.728,19.609,19.609,-19.609,-0.0015,-0.0019,-0.0585,-0.009000000000000001,-0.07100000000000001,-0.14400000000000002
1701526977.768,19.609,19.609,-19.609,-0.0013000000000000002,0.0021000000000000003,0.0436,-0.006,-0.064,-0.127
1701526977.808,19.609,19.609,-19.609,-0.0006000000000000001,-0.0012000000000000001,-0.024200000000000003,-0.018000000000000002,-0.048,-0.10200000000000001
1701526977.848,19.609,19.609,-19.609,-0.0012000000000000001,-0.0002,-0.0037,-0.018000000000000002,-0.008,-0.09
1701526977.888,19.609,19.609,-19.609,0.0014,0.00030000000000000003,0.0088,0.005,0.006,-0.101
1701526977.928,19.609,19.609,-19.609,0.0013000000000000002,-0.0011,-0.018500000000000003,-0.018000000000000002,0.0,-0.099
1701526977.968,19.609,19.609,-19.609,0.0024000000000000002,-0.0011,0.025500000000000002,-0.023,-0.055,-0.077
1701526978.008,19.609,19.609,-19.609,-0.00030000000000000003,-0.0012000000000000001,-0.028300000000000002,0.014,-0.128,-0.064
1701526978.048,19.609,19.609,-19.609,0.0004,-0.0017000000000000001,0.0,0.039,-0.153,-0.05
1701526978.088,19.609,19.609,-19.609,0.0036000000000000003,-0.003,0.0007,0.067,-0.156,-0.065
1701526978.128,19.609,19.609,-19.609,-0.00030000000000000003,-0.0009000000000000001,-0.0034000000000000002,0.064,-0.064,-0.04
1701526978.168,19.609,19.609,-19.609,0.0016,-0.0017000000000000001,-0.0194,0.059000000000000004,-0.008,-0.025
1701526978.208,19.609,19.609,-19.609,0.0031000000000000003,-0.0009000000000000001,0.010400000000000001,0.066,-0.039,-0.027
1701526978.248,19.609,19.609,-19.609,-0.0015,0.0019,-0.038200000000000005,0.059000000000000004,-0.054,-0.039
1701526978.288,19.609,19.609,-19.609,-0.0002,-0.0007,0.016900000000000002,0.099,-0.052000000000000005,-0.079
1701526978.328,19.609,19.609,-19.609,0.0014,0.0016,-0.0125,0.085,-0.042,-0.081
1701526978.368,19.609,19.609,-19.609,-0.0005,0.0009000000000000001,-0.0012000000000000001,0.062,-0.019,-0.073
1701526978.408,19.609,19.609,-19.609,0.0011,0.0015,0.0151,0.029,0.011,-0.053
1701526978.448,19.609,19.609,-19.609,0.0029000000000000002,0.0019,-0.021,0.011,0.056,-0.055
1701526978.488,19.609,19.609,-19.609,0.00030000000000000003,-0.0006000000000000001,0.0,0.014,0.036000000000000004,-0.078
1701526978.528,19.609,19.609,-19.609,0.001,0.0014,0.0097,-0.001,0.045,-0.076
1701526978.568,19.609,19.609,-19.609,-0.0004,0.0007,-0.0122,0.006,0.016,-0.088
1701526978.608,19.609,19.609,-19.609,0.0,0.0015,-0.0117,0.0,-0.03,-0.099
1701526978.648,19.609,19.609,-19.609,-0.0009000000000000001,0.0007,-0.0057,-0.03,-0.045,-0.10300000000000001
1701526978.688,19.609,19.609,-19.609,-0.0011,-0.00030000000000000003,0.0043,0.011,-0.076,-0.125
1701526978.728,19.609,19.609,-19.609,-0.0007,-0.0012000000000000001,-0.010100000000000001,0.0,-0.077,-0.139
1701526978.768,19.609,19.609,-19.609,0.0,0.0021000000000000003,0.0264,-0.028,-0.054,-0.125
1701526978.8079998,19.609,19.609,-19.609,-0.0016,-0.00030000000000000003,-0.045700000000000005,-0.047,-0.037,-0.132
1701526978.848,19.609,19.609,-19.609,-0.0036000000000000003,0.0002,0.0262,-0.043000000000000003,-0.054,-0.138
1701526978.888,19.609,19.609,-19.609,0.001,-0.0009000000000000001,-0.0246,-0.037,-0.046,-0.132
1701526978.928,19.609,19.609,-19.609,-0.0029000000000000002,0.0007,0.0217,-0.039,-0.027,-0.132
1701526978.968,19.609,19.609,-19.609,0.0,-0.0017000000000000001,-0.027700000000000002,-0.049,-0.004,-0.14
1701526979.008,19.609,19.609,-19.609,0.0025,0.0017000000000000001,0.0076,-0.061,0.0,-0.14100000000000001
1701526979.0479999,19.609,19.609,-19.609,-0.0016,-0.0006000000000000001,-0.027,-0.066,-0.008,-0.11800000000000001
1701526979.088,19.609,19.609,-19.609,-0.0014,-0.0008,0.0216,-0.05,-0.021,-0.121
1701526979.128,19.609,19.609,-19.609,-0.001,-0.0007,-0.024300000000000002,-0.008,-0.055,-0.129
1701526979.168,19.609,19.609,-19.609,0.0018000000000000002,0.001,-0.010700000000000001,0.011,-0.07,-0.139
1701526979.208,19.609,19.609,-19.609,0.0017000000000000001,0.002,0.0119,0.012,-0.076,-0.112
1701526979.248,19.609,19.609,-19.609,-0.0018000000000000002,-0.002,-0.0354,0.007,-0.074,-0.10200000000000001
1701526979.2879999,19.609,19.609,-19.609,0.0007,0.0004,0.0333,0.0,-0.057,-0.10400000000000001
1701526979.328,19.609,19.609,-19.609,-0.0013000000000000002,0.0009000000000000001,-0.0178,-0.003,-0.051000000000000004,-0.1
1701526979.368,19.609,19.609,-19.609,-0.0004,0.0005,0.0204,-0.002,-0.064,-0.105
1701526979.408,19.609,19.609,-19.609,-0.0012000000000000001,-0.0009000000000000001,-0.0346,-0.002,-0.076,-0.112
1701526979.448,19.609,19.609,-19.609,0.0004,0.0024000000000000002,0.011300000000000001,0.016,-0.075,-0.131
1701526979.488,19.609,19.609,-19.609,0.0007,-0.0007,-0.0125,0.013000000000000001,-0.07100000000000001,-0.125
1701526979.5279999,19.609,19.609,-19.609,-0.0012000000000000001,-0.0014,0.0119,-0.003,-0.067,-0.128
1701526979.568,19.609,19.609,-19.609,-0.00030000000000000003,0.0006000000000000001,-0.0291,-0.006,-0.064,-0.13
1701526979.608,19.609,19.609,-19.609,-0.00030000000000000003,-0.0001,0.0171,-0.019,-0.057,-0.12
1701526979.648,19.609,19.609,-19.609,0.0002,0.0022,-0.0184,-0.025,-0.04,-0.123
1701526979.688,19.609,19.609,-19.609,0.0012000000000000001,0.0015,0.0217,-0.015,-0.037,-0.122
1701526979.728,19.609,19.609,-19.609,-0.0007,-0.00030000000000000003,-0.0043,-0.011,-0.031,-0.11900000000000001
1701526979.768,19.609,19.609,-19.609,0.0022,0.0014,-0.056,-0.006,-0.036000000000000004,-0.109
1701526979.808,19.609,19.609,-19.609,0.0008,-0.0006000000000000001,0.06330000000000001,0.009000000000000001,-0.04,-0.11
1701526979.848,19.609,19.609,-19.609,0.0007,0.0,-0.0468,0.031,-0.061,-0.121
1701526979.888,19.609,19.609,-19.609,0.0008,0.0022,0.0067,0.016,-0.068,-0.127
1701526979.928,19.609,19.609,-19.609,0.0004,0.0001,0.024900000000000002,-0.017,-0.062,-0.105
1701526979.968,19.609,19.609,-19.609,-0.001,0.0008,-0.0381,-0.011,-0.062,-0.098
1701526980.008,19.609,19.609,-19.609,0.0005,0.0024000000000000002,0.036500000000000005,0.014,-0.05,-0.094
1701526980.048,19.609,19.609,-19.609,-0.0006000000000000001,-0.00030000000000000003,-0.048600000000000004,0.017,-0.038,-0.11800000000000001
1701526980.088,19.609,19.609,-19.609,-0.0009000000000000001,-0.0007,0.0395,-0.003,-0.037,-0.11800000000000001
1701526980.128,19.609,19.609,-19.609,-0.0012000000000000001,-0.0022,-0.0393,0.003,-0.036000000000000004,-0.113
1701526980.168,19.609,19.609,-19.609,-0.0006000000000000001,-0.0012000000000000001,0.0391,-0.019,-0.082,-0.105
1701526980.208,19.609,19.609,-19.609,0.0,-0.0014,-0.0313,-0.013000000000000001,-0.038,-0.10400000000000001
1701526980.248,19.609,19.609,-19.609,0.0009000000000000001,-0.0012000000000000001,0.0207,-0.004,-0.047,-0.11900000000000001
1701526980.288,19.609,19.609,-19.609,-0.0018000000000000002,-0.0021000000000000003,-0.0392,0.007,-0.069,-0.11800000000000001
1701526980.328,19.609,19.609,-19.609,-0.001,-0.0004,0.0007,0.0,-0.05,-0.114
1701526980.368,19.609,19.609,-19.609,-0.0015,-0.002,0.0024000000000000002,0.004,-0.046,-0.11900000000000001
1701526980.408,19.609,19.609,-19.609,-0.0004,-0.0008,-0.029900000000000003,-0.003,-0.044,-0.116
1701526980.448,19.609,19.609,-19.609,0.002,-0.0017000000000000001,0.0263,0.009000000000000001,-0.051000000000000004,-0.12
1701526980.488,19.609,19.609,-19.609,0.002,-0.0006000000000000001,-0.0068000000000000005,-0.004,-0.047,-0.137
1701526980.528,19.609,19.609,-19.609,0.0006000000000000001,-0.0008,0.0086,-0.003,-0.038,-0.134
1701526980.568,19.609,19.609,-19.609,-0.0014,0.0001,-0.0213,-0.019,-0.041,-0.126
1701526980.608,19.609,19.609,-19.609,-0.0001,0.0014,-0.0269,-0.029,-0.031,-0.114
1701526980.648,19.609,19.609,-19.609,0.0001,0.0007,0.04,-0.029,-0.034,-0.123
1701526980.688,19.609,19.609,-19.609,-0.0019,0.0006000000000000001,-0.026500000000000003,-0.022,-0.042,-0.129
1701526980.728,19.609,19.609,-19.609,0.0004,-0.0021000000000000003,0.0258,-0.016,-0.055,-0.123
1701526980.768,19.609,19.609,-19.609,0.00030000000000000003,-0.00030000000000000003,-0.0297,-0.001,-0.07200000000000001,-0.128
1701526980.8079998,19.609,19.609,-19.609,0.0008,0.0002,0.0236,0.018000000000000002,-0.075,-0.14200000000000002
1701526980.848,19.609,19.609,-19.609,-0.0004,0.0017000000000000001,-0.0241,0.059000000000000004,-0.083,-0.156
1701526980.888,19.609,19.609,-19.609,0.002,-0.0009000000000000001,0.007,0.083,-0.066,-0.176
1701526980.928,19.609,19.609,-19.609,-0.0002,0.0006000000000000001,-0.031900000000000005,0.075,-0.054,-0.17500000000000002
1701526980.968,19.609,19.609,-19.609,-0.0004,0.0,0.0286,0.058,-0.065,-0.159
1701526981.008,19.609,19.609,-19.609,0.0007,0.0,-0.020300000000000002,-0.001,-0.08,-0.12
1701526981.0479999,19.609,19.609,-19.609,-0.0016,-0.0004,-0.009000000000000001,-0.022,-0.062,-0.088
1701526981.088,19.609,19.609,-19.609,0.0006000000000000001,-0.001,0.014,0.008,-0.078,-0.124
1701526981.128,19.609,19.609,-19.609,0.0026000000000000003,-0.0012000000000000001,-0.006500000000000001,0.029,-0.083,-0.14100000000000001
1701526981.168,19.609,19.609,-19.609,0.0018000000000000002,-0.0005,-0.015000000000000001,0.012,-0.082,-0.133
1701526981.208,19.609,19.609,-19.609,-0.002,-0.0015,0.0028,0.0,-0.09,-0.11900000000000001
1701526981.248,19.609,19.609,-19.609,0.0027,0.0006000000000000001,-0.006,0.0,-0.063,-0.114
1701526981.2879999,19.609,19.609,-19.609,-0.0007,-0.0001,0.0307,0.007,-0.06,-0.133
1701526981.328,19.609,19.609,-19.609,0.0001,-0.00030000000000000003,-0.0398,0.04,-0.082,-0.166
1701526981.368,19.609,19.609,-19.609,-0.0009000000000000001,-0.0026000000000000003,0.07350000000000001,0.231,-0.112,-0.258
1701526981.408,19.609,19.609,-19.609,-0.0004,-0.0007,0.019200000000000002,0.891,-0.179,-0.62
1701526981.448,19.609,19.609,-19.609,-0.0032,-0.0004,-0.0031000000000000003,1.3,-0.293,-1.0190000000000001
1701526981.488,19.609,19.609,-19.609,-0.0001,-0.0005,0.0011,1.627,-0.233,-1.167
1701526981.5279999,19.609,19.609,-19.609,0.0025,0.0013000000000000002,-0.0044,1.629,-0.184,-1.095
1701526981.568,19.609,19.609,-19.609,0.0021000000000000003,-0.002,0.0029000000000000002,1.596,-0.184,-0.9420000000000001
1701526981.608,19.609,19.609,-19.609,0.0,0.0014,0.0081,1.278,-0.069,-0.621
1701526981.648,19.609,19.609,-19.609,0.0015,-0.002,-0.0019,0.897,-0.229,-0.379
1701526981.688,19.609,19.609,-19.609,-0.0008,0.0001,0.0022,0.547,-0.331,-0.28
1701526981.728,19.609,19.609,-19.609,0.003,-0.00030000000000000003,-0.0015,0.276,-0.41000000000000003,-0.263
1701526981.768,19.609,19.609,-19.609,0.0007,-0.0007,-0.0089,0.201,-0.34,-0.19
1701526981.808,19.609,19.609,-19.609,0.0043,-0.0014,0.006500000000000001,0.101,-0.323,-0.149
1701526981.848,19.609,19.609,-19.609,-0.0018000000000000002,-0.0012000000000000001,-0.0015,0.008,-0.307,-0.10300000000000001
1701526981.888,19.609,19.609,-19.609,-0.0005,0.0018000000000000002,-0.0038,-0.026000000000000002,-0.20700000000000002,-0.088
1701526981.928,19.609,19.609,-19.609,0.0027,-0.001,-0.0029000000000000002,-0.048,-0.134,-0.121
1701526981.968,19.609,19.609,-19.609,0.0004,0.0001,-0.0006000000000000001,-0.07200000000000001,-0.066,-0.11800000000000001
1701526982.008,19.609,19.609,-19.609,-0.001,0.0,-0.0008,-0.089,-0.016,-0.101
1701526982.048,19.609,19.609,-19.609,-0.0006000000000000001,-0.0005,-0.0059,-0.13,0.023,-0.063
1701526982.088,19.609,19.609,-19.609,0.0002,0.0014,-0.0033,-0.24,0.07100000000000001,0.027
1701526982.128,19.609,19.609,-19.609,0.0011,0.0,0.0007,-0.424,0.153,0.121
1701526982.168,19.609,19.609,-19.609,-0.0007,-0.00030000000000000003,-0.007,-0.673,0.074,0.245
1701526982.208,19.609,19.609,-19.609,0.0009000000000000001,-0.0006000000000000001,-0.0041,-1.123,-0.059000000000000004,0.315
1701526982.248,19.609,19.609,-19.609,0.0013000000000000002,-0.0008,0.006,-1.313,0.012,0.47500000000000003
1701526982.288,19.609,19.609,-19.609,-0.0006000000000000001,-0.0016,-0.0056,-1.2510000000000001,-0.041,0.555
1701526982.328,19.609,19.609,-19.609,0.0,0.0002,-0.0025,-1.21,0.2,0.587
1701526982.368,19.609,19.609,-19.609,0.0005,-0.00030000000000000003,-0.0009000000000000001,-1.027,0.384,0.524
1701526982.408,19.609,19.609,-19.609,0.0014,-0.0018000000000000002,-0.0097,-1.0,0.445,0.34500000000000003
1701526982.448,19.609,19.609,-19.609,0.0009000000000000001,-0.0012000000000000001,-0.0079,-0.754,0.378,0.152
1701526982.488,19.609,19.609,-19.609,-0.00030000000000000003,-0.0007,0.0001,-0.588,0.302,-0.067
1701526982.528,19.609,19.609,-19.609,0.0015,0.00030000000000000003,-0.007200000000000001,-0.47700000000000004,0.231,-0.147
1701526982.568,19.609,19.609,-19.609,-0.0006000000000000001,-0.0017000000000000001,-0.0033,-0.258,0.133,-0.229
1701526982.608,19.609,19.609,-19.609,0.0009000000000000001,0.0008,0.0017000000000000001,-0.158,0.075,-0.251
1701526982.648,19.609,19.609,-19.609,0.0007,-0.0006000000000000001,-0.004200000000000001,-0.111,0.039,-0.245
1701526982.688,19.609,19.609,-19.609,0.0032,0.001,0.009000000000000001,-0.097,0.017,-0.226
1701526982.728,19.609,19.609,-19.609,0.002,-0.002,-0.0118,-0.10200000000000001,0.0,-0.185
1701526982.768,19.609,19.609,-19.609,0.0016,0.0012000000000000001,-0.0014,-0.098,-0.008,-0.147
1701526982.8079998,19.609,19.609,-19.609,0.0,-0.00030000000000000003,-0.006900000000000001,-0.05,-0.023,-0.098
1701526982.848,19.609,19.609,-19.609,-0.0011,-0.0021000000000000003,-0.007,-0.018000000000000002,-0.021,-0.08700000000000001
1701526982.888,19.609,19.609,-19.609,0.0017000000000000001,-0.0014,-0.0046,0.021,-0.035,-0.092
1701526982.928,19.609,19.609,-19.609,0.0001,-0.0014,0.010400000000000001,0.056,-0.042,-0.108
1701526982.968,19.609,19.609,-19.609,0.0004,-0.0017000000000000001,0.0043,0.053,-0.041,-0.10200000000000001
1701526983.008,19.609,19.609,-19.609,-0.0004,-0.0016,-0.06620000000000001,0.036000000000000004,-0.031,-0.091
1701526983.0479999,19.609,19.609,-19.609,0.0007,-0.0009000000000000001,0.0228,0.038,-0.015,-0.085
1701526983.088,19.609,19.609,-19.609,0.0,-0.0004,-0.0164,0.044,-0.004,-0.077
1701526983.128,19.609,19.609,-19.609,0.0,-0.0033,0.007200000000000001,0.019,0.024,-0.06
1701526983.168,19.609,19.609,-19.609,-0.0005,0.0013000000000000002,-0.0313,0.031,0.04,-0.042
1701526983.208,19.609,19.609,-19.609,-0.0004,0.0007,0.012,0.036000000000000004,0.037,-0.048
1701526983.248,19.609,19.609,-19.609,0.0016,-0.0009000000000000001,0.0078000000000000005,0.032,0.033,-0.041
1701526983.2879999,19.609,19.609,-19.609,-0.0007,0.0001,-0.0307,0.028,0.028,-0.043000000000000003
1701526983.328,19.609,19.609,-19.609,0.0004,-0.0017000000000000001,0.0164,0.04,0.009000000000000001,-0.058
1701526983.368,19.609,19.609,-19.609,-0.0024000000000000002,-0.0029000000000000002,0.010700000000000001,0.054,-0.018000000000000002,-0.065
1701526983.408,19.609,19.609,-19.609,-0.002,-0.001,-0.0354,0.058,-0.027,-0.074
1701526983.448,19.609,19.609,-19.609,0.0013000000000000002,-0.0046,0.0397,0.03,-0.053,-0.066
1701526983.488,19.609,19.609,-19.609,0.0023,0.0011,-0.023100000000000002,0.012,-0.061,-0.073
1701526983.5279999,19.609,19.609,-19.609,0.0028,0.0006000000000000001,0.0189,0.017,-0.077,-0.083
1701526983.568,19.609,19.609,-19.609,0.0001,0.0,-0.035,-0.004,-0.061,-0.075
1701526983.608,19.609,19.609,-19.609,-0.0029000000000000002,-0.0002,0.0385,-0.012,-0.066,-0.09
1701526983.648,19.609,19.609,-19.609,0.0,0.0001,-0.046900000000000004,-0.03,-0.065,-0.088
1701526983.688,19.609,19.609,-19.609,0.0007,-0.0018000000000000002,0.0131,-0.052000000000000005,-0.056,-0.096
1701526983.728,19.609,19.609,-19.609,0.001,0.0002,0.015000000000000001,-0.048,-0.048,-0.111
1701526983.768,19.609,19.609,-19.609,-0.00030000000000000003,0.00030000000000000003,-0.0268,-0.042,-0.031,-0.114
1701526983.808,19.609,19.609,-19.609,-0.0002,-0.0018000000000000002,0.023,-0.04,-0.049,-0.114
1701526983.848,19.609,19.609,-19.609,-0.00030000000000000003,0.0004,-0.035300000000000005,-0.03,-0.047,-0.117
1701526983.888,19.609,19.609,-19.609,0.0005,0.0006000000000000001,0.0337,-0.048,-0.048,-0.108
1701526983.928,19.609,19.609,-19.609,-0.0018000000000000002,-0.00030000000000000003,-0.0434,-0.043000000000000003,-0.046,-0.109
1701526983.968,19.609,19.609,-19.609,0.00030000000000000003,-0.0024000000000000002,0.0482,-0.03,-0.038,-0.12
1701526984.008,19.609,19.609,-19.609,0.0007,0.0005,-0.0347,-0.027,-0.024,-0.128
1701526984.048,19.609,19.609,-19.609,-0.0017000000000000001,-0.0021000000000000003,0.0076,-0.019,-0.025,-0.10300000000000001
1701526984.088,19.609,19.609,-19.609,0.0007,0.0006000000000000001,0.0092,-0.036000000000000004,-0.049,-0.097
1701526984.128,19.609,19.609,-19.609,0.0006000000000000001,-0.0007,-0.0274,-0.033,-0.046,-0.088
1701526984.168,19.609,19.609,-19.609,0.0002,-0.0017000000000000001,0.020200000000000003,-0.023,-0.041,-0.095
1701526984.208,19.609,19.609,-19.609,0.001,0.0007,0.0004,-0.014,-0.046,-0.091
1701526984.248,19.609,19.609,-19.609,0.0014,0.0006000000000000001,0.0115,-0.018000000000000002,-0.028,-0.073
1701526984.288,19.609,19.609,-19.609,-0.0012000000000000001,-0.0012000000000000001,-0.0361,-0.007,-0.045,-0.08700000000000001
1701526984.328,19.609,19.609,-19.609,0.0,-0.001,0.0369,-0.027,-0.031,-0.099
1701526984.368,19.609,19.609,-19.609,-0.0009000000000000001,-0.0004,-0.0327,-0.03,-0.04,-0.10200000000000001
1701526984.408,19.609,19.609,-19.609,-0.002,-0.0025,0.0213,-0.027,-0.051000000000000004,-0.108
1701526984.448,19.609,19.609,-19.609,0.0012000000000000001,-0.0009000000000000001,-0.042300000000000004,-0.013000000000000001,-0.065,-0.12
1701526984.488,19.609,19.609,-19.609,0.0015,-0.0019,0.0429,-0.019,-0.056,-0.112
1701526984.528,19.609,19.609,-19.609,-0.0001,-0.0017000000000000001,-0.029400000000000003,-0.017,-0.051000000000000004,-0.099
1701526984.568,19.609,19.609,-19.609,-0.0007,-0.0007,0.0183,-0.017,-0.056,-0.10400000000000001
1701526984.608,19.609,19.609,-19.609,-0.0008,-0.0007,-0.0166,-0.009000000000000001,-0.039,-0.106
1701526984.648,19.609,19.609,-19.609,-0.0006000000000000001,0.0001,0.002,-0.008,-0.035,-0.107
1701526984.688,19.609,19.609,-19.609,-0.0001,0.0009000000000000001,0.0142,-0.016,-0.036000000000000004,-0.101
1701526984.728,19.609,19.609,-19.609,0.0012000000000000001,-0.0005,-0.0235,-0.026000000000000002,-0.031,-0.091
1701526984.768,19.609,19.609,-19.609,-0.001,0.0004,0.020300000000000002,-0.014,-0.045,-0.10400000000000001
1701526984.8079998,19.609,19.609,-19.609,0.0043,-0.0023,-0.012700000000000001,-0.009000000000000001,-0.045,-0.11
1701526984.848,19.609,19.609,-19.609,-0.0018000000000000002,-0.0029000000000000002,-0.007200000000000001,-0.029,-0.031,-0.101
1701526984.888,19.609,19.609,-19.609,-0.0001,-0.0006000000000000001,0.0007,-0.02,-0.041,-0.096
1701526984.928,19.609,19.609,-19.609,0.0018000000000000002,0.0016,0.0367,-0.019,-0.05,-0.108
1701526984.968,19.609,19.609,-19.609,0.0005,-0.0018000000000000002,-0.0205,-0.021,-0.047,-0.113
1701526985.008,19.609,19.609,-19.609,0.00030000000000000003,0.0008,-0.033600000000000005,-0.022,-0.042,-0.11800000000000001
1701526985.0479999,19.609,19.609,-19.609,0.0013000000000000002,0.0,0.046700000000000005,-0.018000000000000002,-0.053,-0.11
1701526985.088,19.609,19.609,-19.609,0.0008,-0.0007,-0.0193,-0.025,-0.056,-0.10300000000000001
1701526985.128,19.609,19.609,-19.609,-0.0006000000000000001,0.00030000000000000003,-0.0032,-0.031,-0.063,-0.098
1701526985.168,19.609,19.609,-19.609,-0.0022,0.0012000000000000001,0.0018000000000000002,-0.035,-0.063,-0.085
1701526985.208,19.609,19.609,-19.609,-0.0014,-0.0006000000000000001,-0.0043,-0.028,-0.073,-0.083
1701526985.248,19.609,19.609,-19.609,-0.0005,-0.0006000000000000001,-0.0148,-0.029,-0.082,-0.08700000000000001
1701526985.2879999,19.609,19.609,-19.609,-0.0008,-0.0012000000000000001,0.019700000000000002,-0.022,-0.094,-0.082
1701526985.328,19.609,19.609,-19.609,-0.0007,-0.0016,-0.0053,-0.015,-0.10200000000000001,-0.094
1701526985.368,19.609,19.609,-19.609,0.0013000000000000002,0.0018000000000000002,-0.0009000000000000001,0.001,-0.098,-0.076
1701526985.408,19.609,19.609,-19.609,-0.0014,-0.0001,-0.02,-0.003,-0.09,-0.095
1701526985.448,19.609,19.609,-19.609,0.0004,-0.0025,0.0339,0.0,-0.09,-0.113
1701526985.488,19.609,19.609,-19.609,-0.0015,0.0009000000000000001,-0.0375,0.001,-0.1,-0.113
1701526985.5279999,19.609,19.609,-19.609,-0.0026000000000000003,0.0002,0.0164,-0.005,-0.08600000000000001,-0.107
1701526985.568,19.609,19.609,-19.609,0.0013000000000000002,0.0012000000000000001,-0.0126,0.0,-0.07100000000000001,-0.099
1701526985.608,19.609,19.609,-19.609,0.0026000000000000003,-0.0021000000000000003,0.0109,0.001,-0.063,-0.10400000000000001
1701526985.648,19.609,19.609,-19.609,-0.0007,-0.0001,-0.0061,-0.009000000000000001,-0.06,-0.093
1701526985.688,19.609,19.609,-19.609,0.0,-0.0044,0.0239,0.004,-0.059000000000000004,-0.099
1701526985.728,19.609,19.609,-19.609,0.001,-0.0019,-0.023,-0.004,-0.032,-0.10300000000000001
1701526985.768,19.609,19.609,-19.609,-0.001,-0.0012000000000000001,-0.025,-0.007,-0.031,-0.10200000000000001
1701526985.808,19.609,19.609,-19.609,0.00030000000000000003,0.0009000000000000001,0.018600000000000002,-0.001,-0.018000000000000002,-0.105
1701526985.848,19.609,19.609,-19.609,0.0006000000000000001,0.0001,0.0007,-0.017,-0.045,-0.107
1701526985.888,19.609,19.609,-19.609,0.0004,-0.0008,-0.006900000000000001,-0.015,-0.04,-0.112
1701526985.928,19.609,19.609,-19.609,0.0002,-0.0026000000000000003,0.0035,-0.015,-0.041,-0.105
1701526985.968,19.609,19.609,-19.609,0.0,0.0004,-0.0023,-0.013000000000000001,-0.042,-0.11
1701526986.008,19.609,19.609,-19.609,0.0006000000000000001,-0.0037,-0.009000000000000001,-0.009000000000000001,-0.036000000000000004,-0.111
1701526986.048,19.609,19.609,-19.609,0.0009000000000000001,0.0008,-0.0108,0.001,-0.035,-0.112
1701526986.088,19.609,19.609,-19.609,0.0008,0.00030000000000000003,0.0322,-0.006,-0.042,-0.12
1701526986.128,19.609,19.609,-19.609,0.001,-0.0029000000000000002,-0.0213,-0.016,-0.043000000000000003,-0.117
1701526986.168,19.609,19.609,-19.609,-0.0004,0.0014,0.0261,-0.009000000000000001,-0.047,-0.116
1701526986.208,19.609,19.609,-19.609,-0.0007,0.0011,-0.034,-0.01,-0.044,-0.124
1701526986.248,19.609,19.609,-19.609,0.0009000000000000001,-0.0018000000000000002,0.038400000000000004,-0.011,-0.024,-0.112
1701526986.288,19.609,19.609,-19.609,0.0018000000000000002,-0.0011,-0.038,0.0,-0.021,-0.112
1701526986.328,19.609,19.609,-19.609,-0.0023,-0.0019,0.0308,-0.002,-0.024,-0.11900000000000001
1701526986.368,19.609,19.609,-19.609,-0.0013000000000000002,-0.0025,-0.0261,0.003,-0.028,-0.101
1701526986.408,19.609,19.609,-19.609,0.001,0.00030000000000000003,0.013000000000000001,-0.011,-0.028,-0.105
1701526986.448,19.609,19.609,-19.609,-0.0009000000000000001,-0.001,-0.0327,0.0,-0.027,-0.093
1701526986.488,19.609,19.609,-19.609,0.0008,-0.0034000000000000002,0.0307,-0.005,-0.031,-0.108
1701526986.528,19.609,19.609,-19.609,0.0002,0.0002,-0.0252,-0.005,-0.036000000000000004,-0.108
1701526986.568,19.609,19.609,-19.609,0.0004,0.00030000000000000003,0.021400000000000002,-0.006,-0.038,-0.101
1701526986.608,19.609,19.609,-19.609,-0.0007,-0.0011,-0.0131,-0.009000000000000001,-0.041,-0.093
1701526986.648,19.609,19.609,-19.609,-0.00030000000000000003,-0.0019,0.0037,-0.007,-0.047,-0.10400000000000001
1701526986.688,19.609,19.609,-19.609,0.0001,-0.001,-0.0073,0.012,-0.065,-0.114
1701526986.728,19.609,19.609,-19.609,-0.0004,-0.0008,-0.0273,0.0,-0.066,-0.105
1701526986.768,19.609,19.609,-19.609,-0.0012000000000000001,0.0,0.006200000000000001,-0.001,-0.067,-0.10300000000000001
1701526986.8079998,19.609,19.609,-19.609,-0.0015,-0.0018000000000000002,-0.0061,-0.003,-0.058,-0.10200000000000001
1701526986.848,19.609,19.609,-19.609,0.0004,0.0015,-0.0074,-0.005,-0.051000000000000004,-0.101
1701526986.888,19.609,19.609,-19.609,0.0007,0.0004,-0.0213,-0.009000000000000001,-0.05,-0.105
1701526986.928,19.609,19.609,-19.609,-0.0006000000000000001,-0.0007,0.0446,-0.016,-0.056,-0.105
1701526986.968,19.609,19.609,-19.609,-0.0002,-0.0014,-0.026500000000000003,-0.014,-0.051000000000000004,-0.106
1701526987.008,19.609,19.609,-19.609,-0.0021000000000000003,-0.001,0.0252,-0.019,-0.038,-0.113
1701526987.0479999,19.609,19.609,-19.609,0.0019,-0.001,-0.025500000000000002,-0.015,-0.046,-0.129
1701526987.088,19.609,19.609,-19.609,0.0006000000000000001,0.0005,-0.0074,-0.009000000000000001,-0.051000000000000004,-0.129
1701526987.128,19.609,19.609,-19.609,0.0006000000000000001,-0.0007,0.021500000000000002,-0.01,-0.057,-0.109
1701526987.168,19.609,19.609,-19.609,0.0012000000000000001,0.0013000000000000002,-0.016300000000000002,-0.042,-0.048,-0.10300000000000001
1701526987.208,19.609,19.609,-19.609,-0.0014,0.0006000000000000001,0.028200000000000003,-0.027,-0.044,-0.101
1701526987.248,19.609,19.609,-19.609,0.0015,0.0007,-0.0236,-0.003,-0.042,-0.108
1701526987.2879999,19.609,19.609,-19.609,-0.0018000000000000002,-0.0004,0.0015,0.013000000000000001,-0.056,-0.114
1701526987.328,19.609,19.609,-19.609,0.0013000000000000002,-0.0001,0.0092,0.006,-0.05,-0.113
1701526987.368,19.609,19.609,-19.609,0.00030000000000000003,0.0025,-0.0114,-0.013000000000000001,-0.046,-0.107
1701526987.408,19.609,19.609,-19.609,0.0012000000000000001,0.0015,0.0039000000000000003,-0.023,-0.038,-0.107
1701526987.448,19.609,19.609,-19.609,-0.0009000000000000001,0.0007,-0.0223,-0.012,-0.038,-0.098
1701526987.488,19.609,19.609,-19.609,-0.00030000000000000003,0.0007,0.035,0.003,-0.012,-0.11
1701526987.5279999,19.609,19.609,-19.609,0.0014,-0.0001,-0.0224,-0.003,-0.037,-0.10300000000000001
1701526987.568,19.609,19.609,-19.609,-0.0015,0.0006000000000000001,-0.0015,0.002,-0.031,-0.111
1701526987.608,19.609,19.609,-19.609,0.0005,-0.0014,-0.0068000000000000005,0.005,-0.032,-0.108
1701526987.648,19.609,19.609,-19.609,0.0008,-0.0001,-0.0078000000000000005,-0.007,-0.042,-0.10200000000000001
1701526987.688,19.609,19.609,-19.609,0.0,-0.001,0.0213,-0.006,-0.047,-0.111
1701526987.728,19.609,19.609,-19.609,0.0018000000000000002,0.001,-0.013800000000000002,-0.013000000000000001,-0.056,-0.106
1701526987.768,19.609,19.609,-19.609,-0.0001,-0.0007,0.0023,-0.03,-0.062,-0.109
1701526987.808,19.609,19.609,-19.609,0.0023,0.0012000000000000001,-0.013000000000000001,-0.002,-0.057,-0.114
1701526987.848,19.609,19.609,-19.609,-0.0008,-0.0017000000000000001,0.011300000000000001,0.002,-0.057,-0.111
1701526987.888,19.609,19.609,-19.609,0.0015,-0.0001,-0.0006000000000000001,0.002,-0.049,-0.116
1701526987.928,19.609,19.609,-19.609,-0.0008,-0.0012000000000000001,-0.010400000000000001,-0.005,-0.052000000000000005,-0.12
1701526987.968,19.609,19.609,-19.609,0.0013000000000000002,-0.0004,0.0123,-0.008,-0.038,-0.114
1701526988.008,19.609,19.609,-19.609,0.0,-0.0009000000000000001,-0.0128,-0.022,-0.029,-0.113
1701526988.048,19.609,19.609,-19.609,0.0029000000000000002,-0.00030000000000000003,0.0119,-0.022,-0.033,-0.117
1701526988.088,19.609,19.609,-19.609,-0.0002,-0.00030000000000000003,0.0079,-0.023,-0.041,-0.109
1701526988.128,19.609,19.609,-19.609,0.0004,0.0,-0.0189,-0.005,-0.056,-0.115
1701526988.168,19.609,19.609,-19.609,0.0012000000000000001,0.0001,0.007500000000000001,-0.005,-0.058,-0.108
1701526988.208,19.609,19.609,-19.609,-0.0018000000000000002,-0.001,-0.012400000000000001,-0.003,-0.06,-0.114
1701526988.248,19.609,19.609,-19.609,0.0013000000000000002,-0.0008,0.015000000000000001,0.005,-0.056,-0.10400000000000001
1701526988.288,19.609,19.609,-19.609,0.001,-0.0023,-0.0176,-0.001,-0.045,-0.111
1701526988.328,19.609,19.609,-19.609,0.0015,-0.0031000000000000003,0.0182,0.0,-0.036000000000000004,-0.109
1701526988.368,19.609,19.609,-19.609,0.0004,0.0008,-0.0391,0.008,-0.041,-0.111
1701526988.408,19.609,19.609,-19.609,0.0007,0.0011,0.0339,-0.002,-0.046,-0.10200000000000001
1701526988.448,19.609,19.609,-19.609,0.0,-0.0015,-0.026500000000000003,0.003,-0.054,-0.107
1701526988.488,19.609,19.609,-19.609,-0.0021000000000000003,-0.0005,-0.0008,0.008,-0.049,-0.105
1701526988.528,19.609,19.609,-19.609,0.0013000000000000002,-0.0012000000000000001,-0.028800000000000003,0.01,-0.043000000000000003,-0.11900000000000001
1701526988.568,19.609,19.609,-19.609,0.0007,0.0017000000000000001,-0.0184,0.003,-0.048,-0.114
1701526988.608,19.609,19.609,-19.609,0.0001,-0.0004,0.0332,-0.012,-0.047,-0.10200000000000001
1701526988.648,19.609,19.609,-19.609,0.002,0.0017000000000000001,-0.054400000000000004,-0.023,-0.027,-0.095
1701526988.688,19.609,19.609,-19.609,0.0007,-0.0016,0.044700000000000004,0.009000000000000001,-0.041,-0.112
1701526988.728,19.609,19.609,-19.609,-0.0008,0.0009000000000000001,-0.031900000000000005,0.0,-0.041,-0.116
1701526988.768,19.609,19.609,-19.609,0.0001,0.0009000000000000001,0.0097,-0.01,-0.051000000000000004,-0.09
1701526988.8079998,19.609,19.609,-19.609,0.0021000000000000003,0.0001,-0.0059,-0.009000000000000001,-0.058,-0.082
1701526988.848,19.609,19.609,-19.609,0.0012000000000000001,-0.0015,0.0009000000000000001,-0.002,-0.043000000000000003,-0.093
1701526988.888,19.609,19.609,-19.609,0.0015,-0.0031000000000000003,-0.0142,0.007,-0.041,-0.106
1701526988.928,19.609,19.609,-19.609,-0.0006000000000000001,0.0001,0.006200000000000001,0.007,-0.055,-0.10200000000000001
1701526988.968,19.609,19.609,-19.609,0.0014,-0.0011,0.0145,-0.004,-0.036000000000000004,-0.098
1701526989.008,19.609,19.609,-19.609,0.0031000000000000003,-0.0002,-0.0131,0.004,-0.028,-0.1
1701526989.0479999,19.609,19.609,-19.609,0.0007,-0.0012000000000000001,-0.004200000000000001,0.002,-0.042,-0.106
1701526989.088,19.609,19.609,-19.609,-0.0002,-0.0022,-0.0053,-0.012,-0.035,-0.097
1701526989.128,19.609,19.609,-19.609,0.0032,0.0004,0.0151,-0.024,-0.078,-0.105
1701526989.168,19.609,19.609,-19.609,0.0007,-0.001,-0.0216,-0.023,-0.047,-0.112
1701526989.208,19.609,19.609,-19.609,0.0006000000000000001,-0.0022,-0.012,-0.01,-0.04,-0.115
1701526989.248,19.609,19.609,-19.609,0.0015,0.0013000000000000002,-0.0012000000000000001,-0.008,-0.051000000000000004,-0.116
1701526989.2879999,19.609,19.609,-19.609,0.00030000000000000003,-0.0015,0.003,-0.006,-0.032,-0.111
1701526989.328,19.609,19.609,-19.609,0.0016,0.002,0.005,-0.008,-0.038,-0.11900000000000001
1701526989.368,19.609,19.609,-19.609,0.0014,-0.0006000000000000001,-0.0123,-0.012,-0.034,-0.116
1701526989.408,19.609,19.609,-19.609,0.0016,0.0007,-0.0239,-0.016,-0.033,-0.11800000000000001
1701526989.448,19.609,19.609,-19.609,-0.0002,-0.0013000000000000002,0.0178,-0.016,-0.035,-0.108
1701526989.488,19.609,19.609,-19.609,0.0032,-0.0009000000000000001,-0.0008,-0.014,-0.03,-0.10200000000000001
1701526989.5279999,19.609,19.609,-19.609,0.0009000000000000001,0.0006000000000000001,0.0025,-0.001,-0.032,-0.10200000000000001
1701526989.568,19.609,19.609,-19.609,0.00030000000000000003,0.0004,-0.0287,-0.008,-0.035,-0.11900000000000001
1701526989.608,19.609,19.609,-19.609,0.0018000000000000002,0.0007,0.015300000000000001,-0.018000000000000002,-0.037,-0.109
1701526989.648,19.609,19.609,-19.609,-0.0015,0.0002,-0.0239,-0.021,-0.029,-0.107
1701526989.688,19.609,19.609,-19.609,0.0014,-0.0021000000000000003,0.049,-0.001,-0.046,-0.107
1701526989.728,19.609,19.609,-19.609,-0.0002,0.0018000000000000002,-0.0324,0.005,-0.054,-0.11
1701526989.768,19.609,19.609,-19.609,0.0006000000000000001,-0.0004,0.028,0.006,-0.056,-0.113
1701526989.808,19.609,19.609,-19.609,0.0019,0.0,-0.020900000000000002,0.001,-0.058,-0.1
1701526989.848,19.609,19.609,-19.609,0.001,-0.001,-0.004,0.012,-0.048,-0.10400000000000001
1701526989.888,19.609,19.609,-19.609,0.0017000000000000001,-0.0019,-0.0039000000000000003,0.016,-0.026000000000000002,-0.11
1701526989.928,19.609,19.609,-19.609,0.0009000000000000001,0.0005,-0.0044,0.009000000000000001,-0.035,-0.10200000000000001
1701526989.968,19.609,19.609,-19.609,0.0035,-0.0031000000000000003,0.0061,-0.001,-0.042,-0.094
1701526990.008,19.609,19.609,-19.609,0.00030000000000000003,-0.0008,-0.0007,0.0,-0.025,-0.10300000000000001
1701526990.048,19.609,19.609,-19.609,0.001,0.0009000000000000001,-0.0044,0.0,-0.024,-0.11900000000000001
1701526990.088,19.609,19.609,-19.609,0.0004,-0.00030000000000000003,0.006500000000000001,-0.012,-0.028,-0.115
1701526990.128,19.609,19.609,-19.609,0.0,-0.0007,-0.025,-0.017,-0.04,-0.107
1701526990.168,19.609,19.609,-19.609,-0.0008,-0.00030000000000000003,0.0078000000000000005,-0.005,-0.041,-0.10200000000000001
1701526990.208,19.609,19.609,-19.609,-0.0001,-0.0015,0.0061,-0.001,-0.047,-0.12
1701526990.248,19.609,19.609,-19.609,0.0001,-0.004,0.005,-0.003,-0.048,-0.113
1701526990.288,19.609,19.609,-19.609,0.0033,-0.001,-0.0333,-0.01,-0.033,-0.111
1701526990.328,19.609,19.609,-19.609,0.0007,0.0005,0.0477,-0.01,-0.026000000000000002,-0.109
1701526990.368,19.609,19.609,-19.609,-0.0024000000000000002,-0.0017000000000000001,-0.0216,-0.008,-0.034,-0.112
1701526990.408,19.609,19.609,-19.609,-0.0001,0.0001,-0.0339,-0.013000000000000001,-0.032,-0.113
1701526990.448,19.609,19.609,-19.609,0.0015,0.0006000000000000001,0.0122,-0.006,-0.042,-0.10400000000000001
1701526990.488,19.609,19.609,-19.609,0.00030000000000000003,-0.0009000000000000001,-0.028800000000000003,0.0,-0.054,-0.108
1701526990.528,19.609,19.609,-19.609,-0.0006000000000000001,-0.0008,0.027,0.001,-0.06,-0.107
1701526990.568,19.609,19.609,-19.609,-0.0006000000000000001,0.0006000000000000001,0.01,0.004,-0.038,-0.10300000000000001
1701526990.608,19.609,19.609,-19.609,0.0009000000000000001,-0.0001,-0.0292,0.005,-0.046,-0.11
1701526990.648,19.609,19.609,-19.609,-0.00030000000000000003,0.00030000000000000003,0.014700000000000001,-0.001,-0.043000000000000003,-0.11
1701526990.688,19.609,19.609,-19.609,-0.0002,0.0001,-0.0241,-0.017,-0.038,-0.101
1701526990.728,19.609,19.609,-19.609,0.0006000000000000001,-0.0005,0.033800000000000004,-0.014,-0.041,-0.098
1701526990.768,19.609,19.609,-19.609,0.00030000000000000003,0.0023,-0.0161,0.007,-0.051000000000000004,-0.112
1701526990.8079998,19.609,19.609,-19.609,0.0006000000000000001,0.0002,-0.0245,0.011,-0.06,-0.11900000000000001
1701526990.848,19.609,19.609,-19.609,0.0001,-0.001,0.0046,-0.024,-0.044,-0.08700000000000001
1701526990.888,19.609,19.609,-19.609,0.0001,-0.0014,0.013600000000000001,-0.011,-0.023,-0.099
1701526990.928,19.609,19.609,-19.609,-0.0006000000000000001,-0.0023,0.009300000000000001,-0.085,-0.065,-0.004
1701526990.968,19.609,19.609,-19.609,0.001,-0.002,-0.030500000000000003,-0.17300000000000001,-0.007,-0.17200000000000001
1701526991.008,19.609,19.609,-19.609,0.0006000000000000001,0.00030000000000000003,0.031,-0.016,-0.057,-0.127
1701526991.0479999,19.609,19.609,-19.609,-0.0006000000000000001,-0.0021000000000000003,-0.0373,0.111,-0.074,-0.116
1701526991.088,19.609,19.609,-19.609,-0.0019,0.00030000000000000003,0.0269,0.155,-0.089,-0.14100000000000001
1701526991.128,19.609,19.609,-19.609,-0.0006000000000000001,0.0,-0.0362,0.08,-0.094,-0.069
1701526991.168,19.609,19.609,-19.609,-0.0015,0.0,0.0332,-0.012,-0.1,-0.047
1701526991.208,19.609,19.609,-19.609,-0.002,-0.0007,-0.030100000000000002,-0.078,-0.062,-0.062
1701526991.248,19.609,19.609,-19.609,-0.0004,-0.001,0.039,-0.105,0.001,-0.09
1701526991.2879999,19.609,19.609,-19.609,-0.0028,-0.0017000000000000001,-0.0211,-0.079,-0.004,-0.11800000000000001
1701526991.328,19.609,19.609,-19.609,0.0009000000000000001,0.0004,0.0011,-0.113,-0.026000000000000002,-0.093
1701526991.368,19.609,19.609,-19.609,0.001,-0.0001,-0.010100000000000001,-0.07100000000000001,-0.054,-0.08600000000000001
1701526991.408,19.609,19.609,-19.609,0.0001,-0.001,-0.0057,-0.022,-0.095,-0.064
1701526991.448,19.609,19.609,-19.609,-0.0009000000000000001,0.001,-0.0029000000000000002,-0.035,-0.14,-0.03
1701526991.488,19.609,19.609,-19.609,-0.0022,-0.00030000000000000003,-0.0025,-0.085,-0.156,-0.005
1701526991.5279999,19.609,19.609,-19.609,-0.0011,-0.003,0.0207,-0.076,-0.115,-0.009000000000000001
1701526991.568,19.609,19.609,-19.609,-0.0007,0.0001,-0.02,-0.012,-0.115,-0.058
1701526991.608,19.609,19.609,-19.609,0.0,-0.0002,-0.0025,0.011,-0.08,-0.082
1701526991.648,19.609,19.609,-19.609,-0.0002,0.0,-0.0077,0.025,-0.05,-0.10300000000000001
1701526991.688,19.609,19.609,-19.609,0.0004,-0.0005,0.0098,-0.007,-0.029,-0.10400000000000001
1701526991.728,19.609,19.609,-19.609,0.0016,-0.001,-0.022500000000000003,-0.063,0.0,-0.1
1701526991.768,19.609,19.609,-19.609,-0.0001,-0.0004,0.028800000000000003,-0.095,-0.019,-0.117
1701526991.808,19.609,19.609,-19.609,0.0028,0.001,-0.029900000000000003,-0.046,-0.234,-0.201
1701526991.848,19.609,19.609,-19.609,0.0005,0.0011,0.025,-0.139,-0.088,-0.063
1701526991.888,19.609,19.609,-19.609,0.0015,-0.0001,-0.0264,0.037,-0.153,-0.132
1701526991.928,19.609,19.609,-19.609,0.001,-0.0021000000000000003,0.0234,0.029,-0.14300000000000002,-0.133
1701526991.968,19.609,19.609,-19.609,-0.0005,0.0002,-0.026600000000000002,0.064,-0.039,-0.096
1701526992.008,19.609,19.609,-19.609,0.0012000000000000001,-0.0012000000000000001,0.001,0.127,-0.08,-0.137
1701526992.048,19.609,19.609,-19.609,-0.0018000000000000002,-0.0004,-0.0134,0.053,-0.124,-0.096
1701526992.088,19.609,19.609,-19.609,-0.0001,-0.0009000000000000001,0.0279,0.059000000000000004,-0.159,-0.07100000000000001
1701526992.128,19.609,19.609,-19.609,-0.002,0.0012000000000000001,-0.0374,0.056,-0.163,-0.073
1701526992.168,19.609,19.609,-19.609,0.006,-0.0025,0.005,-0.001,-0.136,-0.03
1701526992.208,19.609,19.609,-19.609,0.0,0.0032,-0.0023,-0.105,-0.10200000000000001,-0.004
1701526992.248,19.609,19.609,-19.609,0.0006000000000000001,-0.0025,-0.0217,-0.157,-0.06,0.029
1701526992.288,19.609,19.609,-19.609,0.0004,-0.0009000000000000001,-0.024900000000000002,-0.17400000000000002,-0.038,0.058
1701526992.328,19.609,19.609,-19.609,0.001,0.0001,0.0142,-0.299,0.045,0.123
1701526992.368,19.609,19.609,-19.609,-0.0007,-0.0014,0.0002,-0.271,0.024,0.095
1701526992.408,19.609,19.609,-19.609,0.00030000000000000003,0.0009000000000000001,-0.0142,-0.189,-0.111,0.022
1701526992.448,19.609,19.609,-19.609,0.00030000000000000003,-0.0014,0.0046,-0.164,-0.178,-0.011
1701526992.488,19.609,19.609,-19.609,-0.0001,-0.0017000000000000001,-0.0252,-0.16,-0.191,0.005
1701526992.528,19.609,19.609,-19.609,-0.002,-0.0008,0.044500000000000005,-0.192,-0.211,0.091
1701526992.568,19.609,19.609,-19.609,0.0001,-0.001,-0.038,-0.313,-0.213,0.20700000000000002
1701526992.608,19.609,19.609,-19.609,0.0005,-0.0023,-0.0025,-0.385,-0.162,0.317
1701526992.648,19.609,19.609,-19.609,0.0011,-0.0012000000000000001,0.0303,-0.584,-0.058,0.534
1701526992.688,19.609,19.609,-19.609,-0.001,0.0015,-0.0346,-0.799,-0.134,0.785
1701526992.728,19.609,19.609,-19.609,0.0007,0.0008,0.027,-1.449,-0.419,1.424
1701526992.768,19.609,19.609,-19.609,-0.0009000000000000001,0.0021000000000000003,-0.0302,-2.079,-0.673,1.835
1701526992.8079998,19.609,19.609,-19.609,0.0004,-0.0006000000000000001,0.0644,-2.38,-0.854,1.877
1701526992.848,19.609,19.609,-19.609,-0.0017000000000000001,0.0004,0.0134,-2.3000000000000003,-0.9520000000000001,1.614
1701526992.888,19.609,19.609,-19.609,0.0008,-0.0012000000000000001,-0.0045000000000000005,-1.7910000000000001,-0.8140000000000001,1.1460000000000001
1701526992.928,19.609,19.609,-19.609,0.00030000000000000003,0.0009000000000000001,0.0,-1.473,-0.727,0.807
1701526992.968,19.609,19.609,-19.609,0.0009000000000000001,-0.0005,0.0023,-0.879,-0.487,0.431
1701526993.008,19.609,19.609,-19.609,0.0012000000000000001,0.0011,-0.00030000000000000003,-0.5640000000000001,-0.326,0.28400000000000003
1701526993.0479999,19.609,19.609,-19.609,-0.0011,-0.0017000000000000001,-0.0034000000000000002,-0.426,-0.291,0.189
1701526993.088,19.609,19.609,-19.609,0.001,0.0018000000000000002,0.0143,-0.34700000000000003,-0.218,0.129
1701526993.128,19.609,19.609,-19.609,-0.0001,-0.0001,0.0018000000000000002,-0.385,-0.28800000000000003,0.096
1701526993.168,19.609,19.609,-19.609,0.0,0.0023,-0.0017000000000000001,-0.343,-0.267,0.026000000000000002
1701526993.208,19.609,19.609,-19.609,-0.0001,0.0,0.0066,-0.253,-0.227,-0.083
1701526993.248,19.609,19.609,-19.609,0.0,0.0,-0.0023,-0.2,-0.20800000000000002,-0.115
1701526993.2879999,19.609,19.609,-19.609,0.0007,-0.0018000000000000002,-0.0149,-0.153,-0.189,-0.112
1701526993.328,19.609,19.609,-19.609,0.0025,-0.0018000000000000002,0.0194,-0.091,-0.14400000000000002,-0.077
1701526993.368,19.609,19.609,-19.609,0.0021000000000000003,0.001,-0.0117,0.035,-0.047,-0.047
1701526993.408,19.609,19.609,-19.609,0.0,0.0006000000000000001,0.0034000000000000002,0.117,0.015,-0.042
1701526993.448,19.609,19.609,-19.609,0.0028,0.0001,0.0023,0.032,0.021,-0.073
1701526993.488,19.609,19.609,-19.609,-0.002,-0.0016,-0.0056,0.018000000000000002,0.057,-0.11
1701526993.5279999,19.609,19.609,-19.609,0.0005,0.00030000000000000003,0.0095,0.074,0.06,-0.149
1701526993.568,19.609,19.609,-19.609,-0.0001,0.0014,0.0016,0.157,0.063,-0.176
1701526993.608,19.609,19.609,-19.609,-0.0023,0.0005,-0.005200000000000001,0.34900000000000003,0.089,-0.192
1701526993.648,19.609,19.609,-19.609,-0.0009000000000000001,0.0002,0.0109,0.509,0.113,-0.304
1701526993.688,19.609,19.609,-19.609,0.0012000000000000001,-0.0011,-0.002,0.664,0.157,-0.481
1701526993.728,19.609,19.609,-19.609,0.0006000000000000001,0.0015,0.0009000000000000001,0.872,0.069,-0.64
1701526993.768,19.609,19.609,-19.609,-0.0009000000000000001,0.0011,-0.0032,1.166,0.213,-0.92
1701526993.808,19.609,19.609,-19.609,0.00030000000000000003,0.0015,0.0009000000000000001,1.539,0.248,-1.1520000000000001
1701526993.848,19.609,19.609,-19.609,-0.0012000000000000001,-0.0009000000000000001,-0.0009000000000000001,1.987,0.343,-1.492
1701526993.888,19.609,19.609,-19.609,0.0012000000000000001,-0.0009000000000000001,0.0057,2.196,0.338,-1.735
1701526993.928,19.609,19.609,-19.609,0.0026000000000000003,-0.0007,-0.023700000000000002,2.476,0.358,-1.802
1701526993.968,19.609,19.609,-19.609,-0.0001,-0.0007,0.00030000000000000003,2.394,0.271,-1.758
1701526994.008,19.609,19.609,-19.609,0.0,0.0021000000000000003,0.053000000000000005,2.068,0.318,-1.552
1701526994.048,19.609,19.609,-19.609,-0.0002,-0.00030000000000000003,0.0057,1.625,0.17,-1.237
1701526994.088,19.609,19.609,-19.609,0.0032,-0.0011,0.0205,1.1420000000000001,0.158,-1.024
1701526994.128,19.609,19.609,-19.609,-0.0007,0.0001,-0.0048000000000000004,0.6960000000000001,0.09,-0.77
1701526994.168,19.609,19.609,-19.609,0.00030000000000000003,0.00030000000000000003,-0.004,0.46900000000000003,0.062,-0.598
1701526994.208,19.609,19.609,-19.609,-0.00030000000000000003,0.0021000000000000003,-0.0013000000000000002,0.278,0.046,-0.397
1701526994.248,19.609,19.609,-19.609,0.0014,-0.0004,0.0181,0.225,0.036000000000000004,-0.329
1701526994.288,19.609,19.609,-19.609,0.0029000000000000002,-0.0002,-0.0071,0.178,0.034,-0.323
1701526994.328,19.609,19.609,-19.609,0.0012000000000000001,0.00030000000000000003,-0.0142,0.15,0.048,-0.308
1701526994.368,19.609,19.609,-19.609,0.0,0.001,0.0037,0.07200000000000001,0.054,-0.278
1701526994.408,19.609,19.609,-19.609,-0.0002,-0.0001,-0.0007,-0.015,0.065,-0.252
1701526994.448,19.609,19.609,-19.609,-0.0016,0.00030000000000000003,-0.012,-0.046,0.08700000000000001,-0.262
1701526994.488,19.609,19.609,-19.609,0.0022,-0.0001,-0.008400000000000001,-0.07200000000000001,0.111,-0.299
1701526994.528,19.609,19.609,-19.609,-0.0004,-0.0018000000000000002,0.0064,-0.139,0.125,-0.323
1701526994.568,19.609,19.609,-19.609,0.0,-0.0017000000000000001,0.0036000000000000003,-0.212,0.122,-0.334
1701526994.608,19.609,19.609,-19.609,0.0004,0.0009000000000000001,-0.0028,-0.313,0.171,-0.31
1701526994.648,19.609,19.609,-19.609,0.0014,0.0006000000000000001,-0.007200000000000001,-0.39,0.169,-0.275
1701526994.688,19.609,19.609,-19.609,0.0014,0.002,-0.0012000000000000001,-0.44,0.245,-0.267
1701526994.728,19.609,19.609,-19.609,-0.0011,-0.0006000000000000001,-0.0007,-0.434,0.227,-0.256
1701526994.768,19.609,19.609,-19.609,0.0013000000000000002,0.0009000000000000001,-0.0011,-0.436,0.181,-0.28500000000000003
1701526994.8079998,19.609,19.609,-19.609,-0.001,-0.0009000000000000001,-0.0079,-0.35000000000000003,0.17500000000000002,-0.308
1701526994.848,19.609,19.609,-19.609,-0.0001,-0.001,0.0001,-0.323,0.122,-0.322
1701526994.888,19.609,19.609,-19.609,-0.0008,-0.002,-0.0095,-0.224,0.092,-0.28800000000000003
1701526994.928,19.609,19.609,-19.609,0.0012000000000000001,0.0025,-0.056600000000000004,-0.165,0.018000000000000002,-0.259
1701526994.968,19.609,19.609,-19.609,-0.002,-0.0015,0.0035,-0.149,0.015,-0.197
1701526995.008,19.609,19.609,-19.609,0.0059,-0.0022,-0.0034000000000000002,-0.125,-0.001,-0.106
1701526995.0479999,19.609,19.609,-19.609,0.0005,-0.002,-0.0379,-0.1,-0.053,-0.053
1701526995.088,19.609,19.609,-19.609,-0.0015,-0.0017000000000000001,0.0216,-0.126,-0.11900000000000001,0.04
1701526995.128,19.609,19.609,-19.609,-0.0016,-0.0009000000000000001,0.0067,-0.184,-0.165,0.138
1701526995.168,19.609,19.609,-19.609,0.0005,-0.0014,-0.0073,-0.226,-0.17400000000000002,0.159
1701526995.208,19.609,19.609,-19.609,0.0006000000000000001,-0.0012000000000000001,0.013300000000000001,-0.23600000000000002,-0.15,0.133
1701526995.248,19.609,19.609,-19.609,0.0002,-0.0017000000000000001,-0.0082,-0.31,-0.121,0.067
1701526995.2879999,19.609,19.609,-19.609,0.0004,-0.0007,-0.022000000000000002,-0.358,-0.066,-0.012
1701526995.328,19.609,19.609,-19.609,-0.0002,0.001,0.0155,-0.313,-0.08700000000000001,-0.135
1701526995.368,19.609,19.609,-19.609,0.0008,0.00030000000000000003,-0.025500000000000002,-0.249,-0.093,-0.184
1701526995.408,19.609,19.609,-19.609,0.0,0.0,0.031,-0.159,-0.054,-0.179
1701526995.448,19.609,19.609,-19.609,-0.0005,-0.0017000000000000001,-0.033600000000000005,-0.115,-0.02,-0.161
1701526995.488,19.609,19.609,-19.609,-0.0009000000000000001,0.0,0.029400000000000003,-0.005,0.024,-0.17500000000000002
1701526995.5279999,19.609,19.609,-19.609,-0.0007,-0.0002,-0.0056,0.08700000000000001,0.04,-0.20700000000000002
1701526995.568,19.609,19.609,-19.609,0.0023,0.001,-0.031,0.134,0.036000000000000004,-0.212
1701526995.608,19.609,19.609,-19.609,0.0011,-0.0006000000000000001,0.0396,0.11900000000000001,0.018000000000000002,-0.176
1701526995.648,19.609,19.609,-19.609,0.0021000000000000003,0.0,-0.0205,0.061,-0.009000000000000001,-0.111
1701526995.688,19.609,19.609,-19.609,0.0004,-0.0018000000000000002,0.0234,0.002,-0.04,-0.061
1701526995.728,19.609,19.609,-19.609,0.0039000000000000003,0.002,-0.0151,-0.036000000000000004,-0.027,-0.07200000000000001
1701526995.768,19.609,19.609,-19.609,0.0,-0.0024000000000000002,0.0244,-0.02,-0.018000000000000002,-0.105
1701526995.808,19.609,19.609,-19.609,0.0025,-0.0017000000000000001,-0.046700000000000005,0.001,-0.014,-0.135
1701526995.848,19.609,19.609,-19.609,0.0016,0.0012000000000000001,-0.0419,0.004,-0.007,-0.146
