timestamp,acc_x,acc_y,acc_z,magn_x,magn_y,magn_z,gyro_x,gyro_y,gyro_z
1701526823.956,19.609,19.609,-19.609,-0.00030000000000000003,0.0022,0.0001,0.125,-0.198,-0.164
1701526823.996,19.609,19.609,-19.609,0.0,0.0,-0.0039000000000000003,0.126,-0.192,-0.16
1701526824.036,19.609,19.609,-19.609,0.0035,-0.0014,-0.0079,0.10400000000000001,-0.14300000000000002,-0.136
1701526824.076,19.609,19.609,-19.609,0.0019,-0.0012000000000000001,-0.0004,0.112,-0.089,-0.14
1701526824.116,19.609,19.609,-19.609,-0.0005,0.0,-0.0036000000000000003,0.08600000000000001,-0.051000000000000004,-0.15
1701526824.156,19.609,19.609,-19.609,-0.0007,0.0004,0.0005,0.045,-0.022,-0.171
1701526824.196,19.609,19.609,-19.609,0.0022,-0.0006000000000000001,-0.0015,0.008,0.033,-0.15
1701526824.236,19.609,19.609,-19.609,0.0024000000000000002,0.0034000000000000002,-0.0023,0.0,0.09,-0.127
1701526824.276,19.609,19.609,-19.609,-0.0007,-0.0004,-0.0017000000000000001,-0.008,0.136,-0.089
1701526824.316,19.609,19.609,-19.609,-0.0001,-0.0001,-0.0021000000000000003,-0.021,0.215,-0.075
1701526824.356,19.609,19.609,-19.609,-0.0006000000000000001,-0.0001,-0.0187,-0.014,0.224,-0.10300000000000001
1701526824.396,19.609,19.609,-19.609,-0.002,-0.0004,0.0068000000000000005,0.011,0.216,-0.114
1701526824.436,19.609,19.609,-19.609,0.0012000000000000001,-0.0006000000000000001,0.0057,0.014,0.321,-0.082
1701526824.476,19.609,19.609,-19.609,0.0001,0.0014,-0.0086,0.029,0.336,-0.08
1701526824.516,19.609,19.609,-19.609,-0.0016,-0.0027,0.0046,0.064,0.335,-0.08
1701526824.556,19.609,19.609,-19.609,-0.0004,-0.0018000000000000002,-0.0004,0.068,0.309,-0.10300000000000001
1701526824.596,19.609,19.609,-19.609,0.0012000000000000001,-0.0026000000000000003,-0.0098,0.012,0.20400000000000001,-0.043000000000000003
1701526824.636,19.609,19.609,-19.609,-0.00030000000000000003,-0.0009000000000000001,-0.0004,-0.018000000000000002,0.178,-0.015
1701526824.676,19.609,19.609,-19.609,0.0009000000000000001,-0.0017000000000000001,0.0026000000000000003,-0.076,0.20400000000000001,0.019
1701526824.716,19.609,19.609,-19.609,0.0034000000000000002,0.0005,-0.0002,-0.125,0.216,0.029
1701526824.756,19.609,19.609,-19.609,0.0016,0.0,0.0105,-0.17200000000000001,0.218,-0.002
1701526824.796,19.609,19.609,-19.609,0.001,0.0007,-0.0106,-0.191,0.11900000000000001,-0.021
1701526824.836,19.609,19.609,-19.609,-0.0018000000000000002,-0.00030000000000000003,0.0035,-0.213,-0.019,-0.022
1701526824.876,19.609,19.609,-19.609,0.0,0.0005,0.0038,-0.2,-0.067,-0.027
1701526824.916,19.609,19.609,-19.609,-0.0002,-0.0004,-0.005200000000000001,-0.188,-0.09,-0.062
1701526824.9559999,19.609,19.609,-19.609,0.002,-0.0013000000000000002,-0.0025,-0.17500000000000002,-0.123,-0.078
1701526824.996,19.609,19.609,-19.609,0.001,0.0004,0.0081,-0.14,-0.203,-0.081
1701526825.036,19.609,19.609,-19.609,-0.0027,-0.0012000000000000001,-0.008400000000000001,-0.088,-0.23500000000000001,-0.06
1701526825.076,19.609,19.609,-19.609,0.001,-0.0008,0.0029000000000000002,-0.067,-0.25,-0.059000000000000004
1701526825.116,19.609,19.609,-19.609,0.0009000000000000001,0.0012000000000000001,0.0014,-0.075,-0.264,-0.047
1701526825.156,19.609,19.609,-19.609,0.0006000000000000001,0.0004,-0.0012000000000000001,-0.061,-0.242,-0.02
1701526825.1959999,19.609,19.609,-19.609,0.00030000000000000003,-0.0008,-0.0103,-0.053,-0.246,0.04
1701526825.236,19.609,19.609,-19.609,-0.0009000000000000001,-0.0001,-0.0018000000000000002,-0.026000000000000002,-0.214,0.062
1701526825.276,19.609,19.609,-19.609,-0.0001,0.0009000000000000001,-0.0009000000000000001,0.028,-0.201,0.0
1701526825.316,19.609,19.609,-19.609,-0.0004,-0.0008,-0.0011,0.076,-0.131,-0.061
1701526825.356,19.609,19.609,-19.609,0.0002,-0.0004,0.002,0.061,-0.109,-0.148
1701526825.396,19.609,19.609,-19.609,0.0015,0.0004,0.010700000000000001,0.033,-0.11,-0.19
1701526825.4359999,19.609,19.609,-19.609,0.0013000000000000002,0.0023,0.007200000000000001,0.031,-0.099,-0.203
1701526825.476,19.609,19.609,-19.609,0.00030000000000000003,-0.00030000000000000003,-0.0059,0.062,-0.1,-0.224
1701526825.516,19.609,19.609,-19.609,0.0031000000000000003,0.0001,-0.0142,0.053,-0.11800000000000001,-0.227
1701526825.556,19.609,19.609,-19.609,-0.0007,0.002,0.0007,-0.006,-0.10400000000000001,-0.254
1701526825.596,19.609,19.609,-19.609,0.003,0.0002,0.0034000000000000002,-0.051000000000000004,-0.08,-0.272
1701526825.636,19.609,19.609,-19.609,0.0006000000000000001,0.0013000000000000002,-0.0002,-0.058,-0.079,-0.253
1701526825.6759999,19.609,19.609,-19.609,0.0007,-0.0001,0.0,-0.065,-0.08,-0.20500000000000002
1701526825.716,19.609,19.609,-19.609,0.0006000000000000001,0.0013000000000000002,-0.0036000000000000003,-0.066,-0.07200000000000001,-0.179
1701526825.756,19.609,19.609,-19.609,0.0019,0.0,0.0,-0.01,-0.059000000000000004,-0.14400000000000002
1701526825.796,19.609,19.609,-19.609,-0.0007,0.0002,0.0036000000000000003,0.02,-0.058,-0.14200000000000002
1701526825.836,19.609,19.609,-19.609,-0.0004,-0.0009000000000000001,-0.0028,0.024,-0.069,-0.182
1701526825.876,19.609,19.609,-19.609,0.0016,0.0011,-0.0034000000000000002,0.021,-0.107,-0.20400000000000001
1701526825.916,19.609,19.609,-19.609,-0.0008,-0.0007,-0.0077,-0.036000000000000004,-0.079,-0.20700000000000002
1701526825.956,19.609,19.609,-19.609,0.0015,0.0006000000000000001,0.0024000000000000002,-0.1,-0.024,-0.176
1701526825.996,19.609,19.609,-19.609,-0.0014,0.0029000000000000002,-0.009300000000000001,-0.152,0.022,-0.154
1701526826.036,19.609,19.609,-19.609,0.002,-0.0007,0.0045000000000000005,-0.192,0.047,-0.15
1701526826.076,19.609,19.609,-19.609,0.00030000000000000003,-0.0014,0.0177,-0.191,0.051000000000000004,-0.14100000000000001
1701526826.116,19.609,19.609,-19.609,-0.0007,0.0019,-0.0086,-0.179,-0.009000000000000001,-0.114
1701526826.156,19.609,19.609,-19.609,-0.00030000000000000003,-0.0019,-0.0055000000000000005,-0.094,-0.057,-0.10300000000000001
1701526826.196,19.609,19.609,-19.609,0.0029000000000000002,-0.0009000000000000001,-0.0018000000000000002,-0.051000000000000004,-0.045,-0.09
1701526826.236,19.609,19.609,-19.609,-0.0004,0.0012000000000000001,-0.0081,0.006,-0.036000000000000004,-0.10300000000000001
1701526826.276,19.609,19.609,-19.609,-0.001,0.0009000000000000001,0.0083,0.023,-0.006,-0.11900000000000001
1701526826.316,19.609,19.609,-19.609,0.00030000000000000003,-0.00030000000000000003,-0.0007,0.029,0.019,-0.121
1701526826.356,19.609,19.609,-19.609,-0.0012000000000000001,0.0015,-0.007,0.003,0.036000000000000004,-0.115
1701526826.396,19.609,19.609,-19.609,0.0001,0.0,0.0068000000000000005,-0.01,0.028,-0.09
1701526826.436,19.609,19.609,-19.609,-0.00030000000000000003,0.0012000000000000001,-0.007,-0.006,0.0,-0.081
1701526826.476,19.609,19.609,-19.609,-0.003,-0.0001,-0.0064,0.009000000000000001,-0.014,-0.093
1701526826.516,19.609,19.609,-19.609,-0.0001,0.0017000000000000001,0.0027,0.035,-0.083,-0.1
1701526826.556,19.609,19.609,-19.609,0.002,0.0,-0.0004,0.034,-0.106,-0.112
1701526826.596,19.609,19.609,-19.609,0.0023,0.001,0.0004,0.035,-0.094,-0.124
1701526826.636,19.609,19.609,-19.609,0.0029000000000000002,0.0,-0.012700000000000001,0.036000000000000004,-0.078,-0.14300000000000002
1701526826.676,19.609,19.609,-19.609,0.0013000000000000002,0.0,0.0034000000000000002,0.0,-0.06,-0.14
1701526826.716,19.609,19.609,-19.609,-0.0004,-0.0001,-0.0162,-0.011,-0.048,-0.137
1701526826.756,19.609,19.609,-19.609,-0.0008,-0.0017000000000000001,-0.0028,-0.038,-0.047,-0.126
1701526826.796,19.609,19.609,-19.609,-0.0008,0.0009000000000000001,0.0018000000000000002,-0.045,-0.04,-0.138
1701526826.836,19.609,19.609,-19.609,-0.0005,0.0013000000000000002,-0.0102,-0.042,-0.01,-0.16
1701526826.876,19.609,19.609,-19.609,0.0005,-0.0011,-0.0034000000000000002,-0.04,-0.006,-0.166
1701526826.916,19.609,19.609,-19.609,0.0,-0.0004,-0.0014,-0.038,-0.02,-0.14200000000000002
1701526826.9559999,19.609,19.609,-19.609,0.001,0.002,-0.0048000000000000004,-0.033,-0.027,-0.134
1701526826.996,19.609,19.609,-19.609,-0.0005,-0.00030000000000000003,0.0017000000000000001,-0.013000000000000001,-0.012,-0.138
1701526827.036,19.609,19.609,-19.609,-0.0011,-0.0018000000000000002,-0.0047,0.012,0.001,-0.14400000000000002
1701526827.076,19.609,19.609,-19.609,0.0,-0.0009000000000000001,-0.0001,0.003,-0.005,-0.122
1701526827.116,19.609,19.609,-19.609,0.0017000000000000001,0.0012000000000000001,0.0112,0.008,-0.017,-0.115
1701526827.156,19.609,19.609,-19.609,-0.0001,-0.0006000000000000001,-0.019700000000000002,-0.007,-0.027,-0.089
1701526827.1959999,19.609,19.609,-19.609,0.0027,0.00030000000000000003,0.0046,-0.004,-0.024,-0.069
1701526827.236,19.609,19.609,-19.609,0.0005,-0.00030000000000000003,0.0073,0.023,-0.044,-0.09
1701526827.276,19.609,19.609,-19.609,-0.0011,-0.0025,0.0028,0.036000000000000004,-0.048,-0.098
1701526827.316,19.609,19.609,-19.609,0.0024000000000000002,-0.0023,-0.005200000000000001,0.031,-0.051000000000000004,-0.1
1701526827.356,19.609,19.609,-19.609,0.0001,0.0013000000000000002,0.0179,0.021,-0.062,-0.095
1701526827.396,19.609,19.609,-19.609,-0.0004,0.0018000000000000002,-0.0048000000000000004,0.015,-0.076,-0.082
1701526827.4359999,19.609,19.609,-19.609,0.0014,0.0006000000000000001,-0.0081,0.035,-0.084,-0.088
1701526827.476,19.609,19.609,-19.609,-0.001,0.0036000000000000003,-0.014400000000000001,0.058,-0.08700000000000001,-0.094
1701526827.516,19.609,19.609,-19.609,0.0017000000000000001,0.0016,0.0048000000000000004,0.063,-0.081,-0.10200000000000001
1701526827.556,19.609,19.609,-19.609,-0.004200000000000001,0.00030000000000000003,0.0015,0.044,-0.076,-0.109
1701526827.596,19.609,19.609,-19.609,-0.0005,0.0016,0.0031000000000000003,0.022,-0.067,-0.109
1701526827.636,19.609,19.609,-19.609,0.0007,0.0,-0.0067,0.0,-0.059000000000000004,-0.108
1701526827.6759999,19.609,19.609,-19.609,-0.0001,0.0,-0.014100000000000001,-0.003,-0.063,-0.105
1701526827.716,19.609,19.609,-19.609,-0.0025,-0.0011,0.0015,-0.011,-0.061,-0.11900000000000001
1701526827.756,19.609,19.609,-19.609,-0.0005,0.0012000000000000001,-0.0055000000000000005,-0.024,-0.049,-0.117
1701526827.796,19.609,19.609,-19.609,0.0007,0.002,0.006200000000000001,-0.023,-0.047,-0.129
1701526827.836,19.609,19.609,-19.609,-0.0017000000000000001,0.0017000000000000001,-0.0032,-0.032,-0.041,-0.135
1701526827.876,19.609,19.609,-19.609,0.0004,0.0001,0.0,-0.017,-0.038,-0.14200000000000002
1701526827.916,19.609,19.609,-19.609,0.0004,0.0014,0.004200000000000001,-0.062,-0.048,-0.138
1701526827.956,19.609,19.609,-19.609,-0.0004,0.0031000000000000003,-0.015700000000000002,-0.08700000000000001,-0.059000000000000004,-0.135
1701526827.996,19.609,19.609,-19.609,0.0002,0.0,0.006,-0.058,-0.06,-0.135
1701526828.036,19.609,19.609,-19.609,0.0014,-0.0011,-0.011300000000000001,0.002,-0.056,-0.129
1701526828.076,19.609,19.609,-19.609,-0.0005,0.0002,0.0067,-0.029,-0.047,-0.127
1701526828.116,19.609,19.609,-19.609,-0.0022,0.0014,-0.0038,-0.003,-0.06,-0.11
1701526828.156,19.609,19.609,-19.609,0.0005,0.00030000000000000003,0.0032,0.025,-0.067,-0.109
1701526828.196,19.609,19.609,-19.609,-0.00030000000000000003,-0.00030000000000000003,-0.0043,0.002,-0.051000000000000004,-0.096
1701526828.236,19.609,19.609,-19.609,0.0,0.0025,-0.001,0.022,-0.036000000000000004,-0.091
1701526828.276,19.609,19.609,-19.609,0.0037,-0.0001,0.0083,0.025,-0.02,-0.10300000000000001
1701526828.316,19.609,19.609,-19.609,0.0,0.0004,-0.0122,0.016,-0.043000000000000003,-0.101
1701526828.356,19.609,19.609,-19.609,-0.001,-0.0014,-0.0017000000000000001,0.001,-0.043000000000000003,-0.098
1701526828.396,19.609,19.609,-19.609,0.0005,-0.0015,-0.0095,0.0,-0.008,-0.10200000000000001
1701526828.436,19.609,19.609,-19.609,-0.0012000000000000001,-0.0009000000000000001,-0.0059,0.015,-0.053,-0.111
1701526828.476,19.609,19.609,-19.609,-0.001,0.0013000000000000002,-0.01,0.012,-0.055,-0.108
1701526828.516,19.609,19.609,-19.609,0.0026000000000000003,-0.001,0.002,0.018000000000000002,-0.069,-0.107
1701526828.556,19.609,19.609,-19.609,-0.0034000000000000002,0.0007,0.0049,0.019,-0.056,-0.11900000000000001
1701526828.596,19.609,19.609,-19.609,0.0015,-0.0008,-0.0263,0.012,-0.048,-0.123
1701526828.636,19.609,19.609,-19.609,-0.0008,0.0006000000000000001,0.0112,0.002,-0.046,-0.114
1701526828.676,19.609,19.609,-19.609,0.0018000000000000002,-0.0012000000000000001,-0.0126,-0.012,-0.039,-0.113
1701526828.716,19.609,19.609,-19.609,-0.0009000000000000001,0.0007,0.0002,-0.018000000000000002,-0.032,-0.11800000000000001
1701526828.756,19.609,19.609,-19.609,-0.0009000000000000001,-0.0023,0.002,-0.006,-0.038,-0.124
1701526828.796,19.609,19.609,-19.609,0.0,0.0028,-0.0036000000000000003,-0.012,-0.02,-0.124
1701526828.836,19.609,19.609,-19.609,0.0006000000000000001,-0.0004,-0.0092,-0.024,-0.021,-0.122
1701526828.876,19.609,19.609,-19.609,0.0016,0.0006000000000000001,-0.0043,-0.024,-0.10200000000000001,-0.096
1701526828.916,19.609,19.609,-19.609,0.0005,0.0009000000000000001,0.00030000000000000003,-0.015,-0.162,-0.073
1701526828.9559999,19.609,19.609,-19.609,0.0015,-0.0011,-0.003,0.01,-0.135,-0.114
1701526828.996,19.609,19.609,-19.609,0.0006000000000000001,-0.0014,-0.0013000000000000002,0.048,-0.06,-0.138
1701526829.036,19.609,19.609,-19.609,0.001,-0.0007,0.0045000000000000005,0.03,0.067,-0.137
1701526829.076,19.609,19.609,-19.609,-0.0007,0.0006000000000000001,-0.0097,-0.005,0.09,-0.124
1701526829.116,19.609,19.609,-19.609,0.0,0.0001,0.0051,-0.029,0.043000000000000003,-0.099
1701526829.156,19.609,19.609,-19.609,-0.0009000000000000001,0.0014,0.0038,-0.018000000000000002,-0.011,-0.093
1701526829.1959999,19.609,19.609,-19.609,-0.0012000000000000001,0.0013000000000000002,-0.0061,-0.007,-0.036000000000000004,-0.08700000000000001
1701526829.236,19.609,19.609,-19.609,0.00030000000000000003,-0.0007,-0.0012000000000000001,0.022,-0.04,-0.1
1701526829.276,19.609,19.609,-19.609,0.0006000000000000001,-0.0004,0.0009000000000000001,0.038,-0.018000000000000002,-0.11
1701526829.316,19.609,19.609,-19.609,0.0005,-0.0012000000000000001,-0.0004,0.038,-0.017,-0.122
1701526829.356,19.609,19.609,-19.609,0.0,0.0002,-0.010700000000000001,0.014,0.001,-0.125
1701526829.396,19.609,19.609,-19.609,-0.0007,-0.0015,0.0018000000000000002,0.012,0.01,-0.125
1701526829.4359999,19.609,19.609,-19.609,-0.0008,0.0,-0.0053,0.029,0.052000000000000005,-0.108
1701526829.476,19.609,19.609,-19.609,0.0001,-0.00030000000000000003,-0.0023,0.015,0.058,-0.113
1701526829.516,19.609,19.609,-19.609,-0.0007,0.0004,-0.0037,0.028,0.062,-0.115
1701526829.556,19.609,19.609,-19.609,-0.0013000000000000002,-0.00030000000000000003,-0.0002,0.056,0.076,-0.114
1701526829.596,19.609,19.609,-19.609,0.0,-0.0007,0.012,0.07200000000000001,0.091,-0.107
1701526829.636,19.609,19.609,-19.609,0.0009000000000000001,0.0027,-0.0056,0.056,0.098,-0.1
1701526829.6759999,19.609,19.609,-19.609,0.0002,0.001,0.0007,0.045,0.115,-0.106
1701526829.716,19.609,19.609,-19.609,0.0009000000000000001,0.0021000000000000003,-0.0002,0.031,0.111,-0.122
1701526829.756,19.609,19.609,-19.609,-0.001,-0.0001,0.0119,-0.018000000000000002,0.093,-0.126
1701526829.796,19.609,19.609,-19.609,0.002,-0.0007,-0.0128,-0.047,0.058,-0.116
1701526829.836,19.609,19.609,-19.609,0.001,0.0013000000000000002,-0.0076,-0.09,0.02,-0.096
1701526829.876,19.609,19.609,-19.609,0.0011,-0.0004,-0.0033,-0.09,0.003,-0.101
1701526829.916,19.609,19.609,-19.609,-0.0032,0.0007,-0.0014,-0.062,-0.018000000000000002,-0.107
1701526829.956,19.609,19.609,-19.609,0.0004,-0.0002,-0.0007,-0.007,-0.025,-0.124
1701526829.996,19.609,19.609,-19.609,0.0,0.0012000000000000001,-0.0076,0.009000000000000001,-0.057,-0.129
1701526830.036,19.609,19.609,-19.609,-0.0006000000000000001,0.00030000000000000003,-0.0015,0.007,-0.051000000000000004,-0.133
1701526830.076,19.609,19.609,-19.609,-0.0034000000000000002,0.0012000000000000001,-0.0039000000000000003,-0.006,-0.065,-0.125
1701526830.116,19.609,19.609,-19.609,0.00030000000000000003,-0.0012000000000000001,0.008,-0.027,-0.099,-0.11
1701526830.156,19.609,19.609,-19.609,-0.0002,0.001,-0.007,-0.033,-0.106,-0.107
1701526830.196,19.609,19.609,-19.609,-0.0013000000000000002,-0.0004,0.0151,-0.035,-0.11800000000000001,-0.09
1701526830.236,19.609,19.609,-19.609,-0.0009000000000000001,-0.0004,-0.014100000000000001,-0.024,-0.135,-0.08700000000000001
1701526830.276,19.609,19.609,-19.609,-0.00030000000000000003,0.0006000000000000001,0.0,0.005,-0.159,-0.10300000000000001
1701526830.316,19.609,19.609,-19.609,0.00030000000000000003,-0.0006000000000000001,0.0,0.022,-0.127,-0.109
1701526830.356,19.609,19.609,-19.609,-0.0006000000000000001,0.0005,-0.0022,0.024,-0.109,-0.096
1701526830.396,19.609,19.609,-19.609,-0.0017000000000000001,-0.0017000000000000001,0.0082,0.033,-0.08600000000000001,-0.111
1701526830.436,19.609,19.609,-19.609,0.0006000000000000001,-0.0012000000000000001,-0.0129,0.03,-0.059000000000000004,-0.099
1701526830.476,19.609,19.609,-19.609,0.0009000000000000001,0.0012000000000000001,-0.0023,0.031,-0.057,-0.097
1701526830.516,19.609,19.609,-19.609,-0.0022,-0.0006000000000000001,-0.001,0.027,-0.042,-0.096
1701526830.556,19.609,19.609,-19.609,0.0001,-0.0012000000000000001,0.0051,0.021,-0.043000000000000003,-0.10300000000000001
1701526830.596,19.609,19.609,-19.609,-0.0004,-0.0009000000000000001,-0.0055000000000000005,0.006,-0.043000000000000003,-0.10300000000000001
1701526830.636,19.609,19.609,-19.609,-0.00030000000000000003,-0.0021000000000000003,-0.0016,-0.003,-0.046,-0.099
1701526830.676,19.609,19.609,-19.609,0.002,0.0006000000000000001,-0.0031000000000000003,-0.01,-0.047,-0.10400000000000001
1701526830.716,19.609,19.609,-19.609,-0.0009000000000000001,0.0024000000000000002,0.008700000000000001,-0.008,-0.052000000000000005,-0.114
1701526830.756,19.609,19.609,-19.609,-0.0022,-0.0031000000000000003,0.013300000000000001,-0.013000000000000001,-0.055,-0.113
1701526830.796,19.609,19.609,-19.609,-0.0008,-0.0016,-0.008400000000000001,-0.005,-0.065,-0.114
1701526830.836,19.609,19.609,-19.609,-0.0005,0.0012000000000000001,-0.0009000000000000001,-0.009000000000000001,-0.05,-0.10400000000000001
1701526830.876,19.609,19.609,-19.609,-0.0017000000000000001,-0.0004,0.0045000000000000005,-0.015,-0.053,-0.109
1701526830.916,19.609,19.609,-19.609,0.0008,0.0028,0.0109,-0.052000000000000005,-0.007,-0.126
1701526830.9559999,19.609,19.609,-19.609,0.0006000000000000001,-0.0018000000000000002,-0.0222,-0.122,-0.036000000000000004,-0.105
1701526830.996,19.609,19.609,-19.609,-0.0028,-0.0001,-0.0161,-0.231,-0.227,-0.054
1701526831.036,19.609,19.609,-19.609,0.00030000000000000003,-0.0019,-0.0007,-0.178,-0.44,-0.032
1701526831.076,19.609,19.609,-19.609,0.0016,-0.0009000000000000001,-0.0007,-0.029,-0.448,-0.043000000000000003
1701526831.116,19.609,19.609,-19.609,0.0022,-0.001,-0.0021000000000000003,0.059000000000000004,-0.339,-0.073
1701526831.156,19.609,19.609,-19.609,-0.0012000000000000001,0.0019,-0.0037,0.139,-0.082,-0.093
1701526831.1959999,19.609,19.609,-19.609,0.001,-0.00030000000000000003,-0.0001,0.133,0.11800000000000001,-0.131
1701526831.236,19.609,19.609,-19.609,-0.001,-0.00030000000000000003,-0.0005,0.04,0.20400000000000001,-0.151
1701526831.276,19.609,19.609,-19.609,0.00030000000000000003,0.0004,-0.0095,-0.023,0.089,-0.151
1701526831.316,19.609,19.609,-19.609,0.004200000000000001,0.0017000000000000001,-0.0054,-0.053,-0.077,-0.148
1701526831.356,19.609,19.609,-19.609,0.0,0.0015,0.0034000000000000002,-0.044,-0.185,-0.124
1701526831.396,19.609,19.609,-19.609,0.0004,-0.0001,0.0025,-0.084,-0.10400000000000001,-0.08
1701526831.4359999,19.609,19.609,-19.609,-0.0004,0.0,0.002,-0.06,-0.01,-0.056
1701526831.476,19.609,19.609,-19.609,0.00030000000000000003,0.0004,0.0007,-0.05,0.124,-0.091
1701526831.516,19.609,19.609,-19.609,0.00030000000000000003,-0.002,-0.004200000000000001,-0.002,0.107,-0.125
1701526831.556,19.609,19.609,-19.609,0.0001,-0.0023,0.0085,0.008,0.04,-0.135
1701526831.596,19.609,19.609,-19.609,0.0,-0.00030000000000000003,-0.0083,-0.002,-0.044,-0.116
1701526831.636,19.609,19.609,-19.609,0.0009000000000000001,-0.00030000000000000003,0.0001,0.035,-0.091,-0.096
1701526831.6759999,19.609,19.609,-19.609,-0.0006000000000000001,-0.0017000000000000001,0.0004,0.045,-0.088,-0.121
1701526831.716,19.609,19.609,-19.609,-0.0001,0.0016,-0.0164,0.031,-0.016,-0.113
1701526831.756,19.609,19.609,-19.609,0.0025,0.0014,0.0028,-0.027,-0.014,-0.129
1701526831.796,19.609,19.609,-19.609,-0.0001,-0.0005,0.0002,-0.10300000000000001,-0.044,-0.109
1701526831.836,19.609,19.609,-19.609,0.0006000000000000001,-0.0031000000000000003,-0.0017000000000000001,-0.068,-0.075,-0.121
1701526831.876,19.609,19.609,-19.609,0.00030000000000000003,-0.0002,0.0028,-0.018000000000000002,-0.106,-0.11900000000000001
1701526831.916,19.609,19.609,-19.609,-0.0007,0.0006000000000000001,-0.007,0.036000000000000004,-0.075,-0.121
1701526831.956,19.609,19.609,-19.609,-0.0004,-0.0009000000000000001,-0.0008,0.059000000000000004,-0.094,-0.11900000000000001
1701526831.996,19.609,19.609,-19.609,-0.0006000000000000001,0.001,-0.0002,0.06,-0.046,-0.10400000000000001
1701526832.036,19.609,19.609,-19.609,0.0007,-0.002,-0.0024000000000000002,0.019,-0.024,-0.097
1701526832.076,19.609,19.609,-19.609,0.0022,0.0001,-0.012100000000000001,0.003,0.003,-0.107
1701526832.116,19.609,19.609,-19.609,0.0022,0.0009000000000000001,-0.00030000000000000003,0.001,0.029,-0.111
1701526832.156,19.609,19.609,-19.609,0.0009000000000000001,-0.0001,-0.0028,-0.01,0.035,-0.095
1701526832.196,19.609,19.609,-19.609,0.0026000000000000003,-0.0025,0.00030000000000000003,-0.034,0.073,-0.056
1701526832.236,19.609,19.609,-19.609,0.0,-0.002,-0.0009000000000000001,-0.074,0.093,-0.002
1701526832.276,19.609,19.609,-19.609,0.0001,-0.0018000000000000002,0.012100000000000001,-0.05,0.091,-0.033
1701526832.316,19.609,19.609,-19.609,-0.0014,-0.0002,-0.0117,0.025,0.055,-0.13
1701526832.356,19.609,19.609,-19.609,0.0017000000000000001,-0.0001,-0.0063,0.019,0.029,-0.154
1701526832.396,19.609,19.609,-19.609,-0.0043,-0.0016,-0.005200000000000001,-0.149,0.10400000000000001,-0.165
1701526832.436,19.609,19.609,-19.609,0.0011,-0.00030000000000000003,-0.0043,-0.126,0.07200000000000001,-0.241
1701526832.476,19.609,19.609,-19.609,-0.0002,0.0006000000000000001,0.0016,-0.076,-0.036000000000000004,-0.263
1701526832.516,19.609,19.609,-19.609,-0.0004,0.0001,-0.0056,-0.092,-0.045,-0.17300000000000001
1701526832.556,19.609,19.609,-19.609,-0.0017000000000000001,0.0018000000000000002,0.0043,-0.128,-0.033,-0.092
1701526832.596,19.609,19.609,-19.609,-0.001,0.0,-0.0029000000000000002,-0.10200000000000001,-0.048,-0.059000000000000004
1701526832.636,19.609,19.609,-19.609,0.0014,0.0,-0.0018000000000000002,-0.074,-0.028,-0.034
1701526832.676,19.609,19.609,-19.609,0.0015,0.0015,-0.010400000000000001,-0.047,-0.027,-0.052000000000000005
1701526832.716,19.609,19.609,-19.609,-0.0014,-0.0001,0.0,-0.005,-0.011,-0.094
1701526832.756,19.609,19.609,-19.609,0.002,-0.0015,0.001,0.038,0.003,-0.162
1701526832.796,19.609,19.609,-19.609,-0.00030000000000000003,-0.0017000000000000001,-0.017,0.058,-0.011,-0.221
1701526832.836,19.609,19.609,-19.609,0.0013000000000000002,-0.0012000000000000001,-0.0026000000000000003,0.05,-0.04,-0.224
1701526832.876,19.609,19.609,-19.609,0.0009000000000000001,0.00030000000000000003,-0.0036000000000000003,0.007,-0.062,-0.189
1701526832.916,19.609,19.609,-19.609,-0.0006000000000000001,0.0006000000000000001,-0.020300000000000002,-0.032,-0.068,-0.134
1701526832.9559999,19.609,19.609,-19.609,0.0015,-0.00030000000000000003,0.0035,-0.047,-0.089,-0.10200000000000001
1701526832.996,19.609,19.609,-19.609,-0.0025,-0.0024000000000000002,-0.0068000000000000005,-0.029,-0.08700000000000001,-0.115
1701526833.036,19.609,19.609,-19.609,0.0036000000000000003,0.0013000000000000002,-0.0106,0.005,-0.088,-0.134
1701526833.076,19.609,19.609,-19.609,-0.00030000000000000003,-0.0005,0.0097,0.019,-0.073,-0.129
1701526833.116,19.609,19.609,-19.609,0.0007,0.00030000000000000003,-0.020200000000000003,0.015,-0.056,-0.105
1701526833.156,19.609,19.609,-19.609,-0.0013000000000000002,-0.0017000000000000001,0.0189,0.002,-0.039,-0.095
1701526833.1959999,19.609,19.609,-19.609,0.0007,-0.0012000000000000001,-0.0115,0.01,-0.03,-0.096
1701526833.236,19.609,19.609,-19.609,-0.0012000000000000001,-0.0015,-0.0077,0.008,-0.041,-0.105
1701526833.276,19.609,19.609,-19.609,-0.0014,-0.0002,-0.022500000000000003,-0.007,-0.025,-0.09
1701526833.316,19.609,19.609,-19.609,0.0006000000000000001,0.0009000000000000001,0.0199,-0.002,-0.02,-0.1
1701526833.356,19.609,19.609,-19.609,-0.0023,-0.0009000000000000001,-0.0122,0.0,-0.011,-0.124
1701526833.396,19.609,19.609,-19.609,-0.0012000000000000001,0.0,-0.0081,-0.009000000000000001,-0.021,-0.116
1701526833.4359999,19.609,19.609,-19.609,-0.0004,-0.0004,-0.006500000000000001,-0.034,-0.031,-0.108
1701526833.476,19.609,19.609,-19.609,0.0,-0.0015,-0.0004,-0.008,-0.051000000000000004,-0.107
1701526833.516,19.609,19.609,-19.609,0.0019,0.001,-0.004,0.005,-0.057,-0.115
1701526833.556,19.609,19.609,-19.609,0.0006000000000000001,-0.0005,0.005200000000000001,0.018000000000000002,-0.065,-0.122
1701526833.596,19.609,19.609,-19.609,-0.0006000000000000001,-0.0013000000000000002,-0.0076,0.028,-0.061,-0.116
1701526833.636,19.609,19.609,-19.609,-0.0013000000000000002,-0.001,-0.0025,0.005,-0.062,-0.101
1701526833.6759999,19.609,19.609,-19.609,-0.0006000000000000001,0.0007,0.0,0.012,-0.049,-0.113
1701526833.716,19.609,19.609,-19.609,-0.00030000000000000003,0.0018000000000000002,-0.0022,-0.024,-0.061,-0.112
1701526833.756,19.609,19.609,-19.609,0.0014,0.0,-0.0081,-0.021,-0.074,-0.11800000000000001
1701526833.796,19.609,19.609,-19.609,0.0006000000000000001,-0.0004,0.0051,-0.016,-0.075,-0.129
1701526833.836,19.609,19.609,-19.609,0.0007,0.0018000000000000002,-0.0044,-0.004,-0.068,-0.11900000000000001
1701526833.876,19.609,19.609,-19.609,-0.0024000000000000002,0.0023,-0.0115,-0.009000000000000001,-0.043000000000000003,-0.116
1701526833.916,19.609,19.609,-19.609,-0.0037,0.0002,0.0012000000000000001,-0.008,-0.036000000000000004,-0.122
1701526833.956,19.609,19.609,-19.609,0.001,-0.0006000000000000001,-0.0055000000000000005,-0.039,-0.023,-0.13
1701526833.996,19.609,19.609,-19.609,-0.0018000000000000002,0.0,0.0004,-0.051000000000000004,-0.043000000000000003,-0.139
1701526834.036,19.609,19.609,-19.609,0.0,-0.0009000000000000001,-0.0031000000000000003,-0.085,-0.075,-0.148
1701526834.076,19.609,19.609,-19.609,0.002,-0.0006000000000000001,-0.0018000000000000002,-0.108,-0.081,-0.14100000000000001
1701526834.116,19.609,19.609,-19.609,-0.0021000000000000003,-0.0006000000000000001,-0.0114,-0.088,-0.069,-0.122
1701526834.156,19.609,19.609,-19.609,-0.0014,0.0009000000000000001,0.0068000000000000005,-0.06,-0.051000000000000004,-0.123
1701526834.196,19.609,19.609,-19.609,0.0004,0.0009000000000000001,-0.0085,-0.029,-0.041,-0.133
1701526834.236,19.609,19.609,-19.609,-0.00030000000000000003,0.0001,-0.0034000000000000002,-0.02,-0.03,-0.131
1701526834.276,19.609,19.609,-19.609,0.0009000000000000001,-0.0017000000000000001,-0.019100000000000002,-0.02,-0.035,-0.11800000000000001
1701526834.316,19.609,19.609,-19.609,-0.0001,-0.0012000000000000001,0.01,-0.011,-0.04,-0.111
1701526834.356,19.609,19.609,-19.609,0.0001,0.0015,0.0014,-0.007,-0.055,-0.108
1701526834.396,19.609,19.609,-19.609,0.0001,0.0006000000000000001,-0.013000000000000001,0.007,-0.055,-0.101
1701526834.436,19.609,19.609,-19.609,0.0004,-0.00030000000000000003,0.0022,0.017,-0.048,-0.108
1701526834.476,19.609,19.609,-19.609,-0.00030000000000000003,0.0,-0.0016,0.021,-0.045,-0.112
1701526834.516,19.609,19.609,-19.609,0.0001,-0.0002,-0.001,0.009000000000000001,-0.052000000000000005,-0.10200000000000001
1701526834.556,19.609,19.609,-19.609,0.0013000000000000002,-0.0001,-0.0051,0.0,-0.058,-0.078
1701526834.596,19.609,19.609,-19.609,-0.0018000000000000002,-0.0004,0.0081,0.005,-0.07,-0.058
1701526834.636,19.609,19.609,-19.609,0.0019,0.001,0.007,0.015,-0.058,-0.063
1701526834.676,19.609,19.609,-19.609,0.0007,-0.0008,-0.0014,0.034,-0.057,-0.056
1701526834.716,19.609,19.609,-19.609,-0.0006000000000000001,0.0,-0.005200000000000001,0.053,-0.056,-0.058
1701526834.756,19.609,19.609,-19.609,0.0009000000000000001,-0.0005,-0.0007,0.061,-0.065,-0.057
1701526834.796,19.609,19.609,-19.609,-0.0009000000000000001,0.0014,-0.0032,0.05,-0.057,-0.04
1701526834.836,19.609,19.609,-19.609,0.00030000000000000003,-0.0015,-0.0025,0.012,-0.053,-0.028
1701526834.876,19.609,19.609,-19.609,0.0006000000000000001,-0.0008,-0.0059,0.022,-0.048,-0.023
1701526834.916,19.609,19.609,-19.609,0.0026000000000000003,0.0007,-0.0073,0.038,-0.057,-0.055
1701526834.9559999,19.609,19.609,-19.609,0.0015,0.0012000000000000001,0.0155,0.064,-0.057,-0.081
1701526834.996,19.609,19.609,-19.609,-0.0009000000000000001,0.0005,-0.010100000000000001,0.084,-0.041,-0.085
1701526835.036,19.609,19.609,-19.609,-0.0012000000000000001,-0.0004,-0.0152,0.083,-0.038,-0.082
1701526835.076,19.609,19.609,-19.609,0.0011,0.0002,0.0229,0.07100000000000001,-0.024,-0.078
1701526835.116,19.609,19.609,-19.609,0.0021000000000000003,-0.0006000000000000001,-0.0117,0.063,-0.025,-0.077
1701526835.156,19.609,19.609,-19.609,0.0016,-0.0014,-0.0063,0.056,-0.032,-0.082
1701526835.1959999,19.609,19.609,-19.609,-0.0001,-0.0014,0.010400000000000001,0.052000000000000005,-0.038,-0.085
1701526835.236,19.609,19.609,-19.609,0.0009000000000000001,-0.0015,-0.0173,0.046,-0.053,-0.093
1701526835.276,19.609,19.609,-19.609,0.0013000000000000002,-0.0018000000000000002,-0.008400000000000001,0.047,-0.052000000000000005,-0.084
1701526835.316,19.609,19.609,-19.609,-0.001,0.001,-0.007500000000000001,0.054,-0.052000000000000005,-0.094
1701526835.356,19.609,19.609,-19.609,-0.0046,-0.0013000000000000002,-0.0008,0.05,-0.044,-0.099
1701526835.396,19.609,19.609,-19.609,0.0018000000000000002,-0.0007,-0.0108,0.042,-0.042,-0.10400000000000001
1701526835.4359999,19.609,19.609,-19.609,0.0006000000000000001,-0.0006000000000000001,-0.0029000000000000002,0.05,-0.048,-0.106
1701526835.476,19.609,19.609,-19.609,-0.001,-0.001,0.0077,0.025,-0.049,-0.10300000000000001
1701526835.516,19.609,19.609,-19.609,0.0,-0.0014,-0.00030000000000000003,0.025,-0.046,-0.109
1701526835.556,19.609,19.609,-19.609,0.0004,-0.0015,-0.0061,0.017,-0.048,-0.109
1701526835.596,19.609,19.609,-19.609,-0.0006000000000000001,-0.0025,0.0115,0.001,-0.043000000000000003,-0.107
1701526835.636,19.609,19.609,-19.609,-0.0001,-0.001,-0.0122,-0.002,-0.042,-0.114
1701526835.6759999,19.609,19.609,-19.609,0.0027,-0.0022,-0.0125,-0.009000000000000001,-0.041,-0.11900000000000001
1701526835.716,19.609,19.609,-19.609,0.0017000000000000001,0.0019,0.0009000000000000001,-0.013000000000000001,-0.038,-0.116
1701526835.756,19.609,19.609,-19.609,-0.0011,0.00030000000000000003,-0.06470000000000001,-0.014,-0.041,-0.116
1701526835.796,19.609,19.609,-19.609,0.0004,0.0015,0.011300000000000001,-0.016,-0.035,-0.115
1701526835.836,19.609,19.609,-19.609,0.0025,-0.0012000000000000001,-0.0056,-0.018000000000000002,-0.041,-0.116
1701526835.876,19.609,19.609,-19.609,-0.0018000000000000002,0.0004,-0.012,-0.02,-0.032,-0.116
1701526835.916,19.609,19.609,-19.609,0.0007,0.0,-0.0132,-0.015,-0.036000000000000004,-0.114
1701526835.956,19.609,19.609,-19.609,-0.0012000000000000001,0.002,-0.0195,-0.013000000000000001,-0.038,-0.109
1701526835.996,19.609,19.609,-19.609,0.0015,0.00030000000000000003,0.038,-0.026000000000000002,-0.035,-0.111
1701526836.036,19.609,19.609,-19.609,0.0,0.0,-0.039,-0.021,-0.04,-0.109
1701526836.076,19.609,19.609,-19.609,-0.0014,-0.0017000000000000001,0.0388,-0.006,-0.037,-0.096
1701526836.116,19.609,19.609,-19.609,-0.0007,-0.001,-0.0211,-0.002,-0.042,-0.115
1701526836.156,19.609,19.609,-19.609,0.0007,-0.0004,-0.013600000000000001,-0.01,-0.042,-0.122
1701526836.196,19.609,19.609,-19.609,-0.0012000000000000001,-0.00030000000000000003,-0.0007,-0.036000000000000004,-0.043000000000000003,-0.10300000000000001
1701526836.236,19.609,19.609,-19.609,0.0028,0.0,-0.0212,-0.044,-0.057,-0.098
1701526836.276,19.609,19.609,-19.609,0.0,-0.0007,0.0045000000000000005,-0.031,-0.054,-0.113
1701526836.316,19.609,19.609,-19.609,0.0005,-0.0017000000000000001,0.0123,-0.017,-0.057,-0.122
1701526836.356,19.609,19.609,-19.609,0.0011,0.001,0.0038,-0.018000000000000002,-0.059000000000000004,-0.111
1701526836.396,19.609,19.609,-19.609,-0.0029000000000000002,0.0001,-0.0196,-0.028,-0.046,-0.106
1701526836.436,19.609,19.609,-19.609,0.0002,0.0012000000000000001,0.0291,-0.018000000000000002,-0.038,-0.114
1701526836.476,19.609,19.609,-19.609,0.0019,-0.0012000000000000001,-0.0429,-0.01,-0.035,-0.117
1701526836.516,19.609,19.609,-19.609,0.0004,0.00030000000000000003,0.0036000000000000003,-0.008,-0.03,-0.112
1701526836.556,19.609,19.609,-19.609,-0.00030000000000000003,-0.0011,-0.013900000000000001,-0.004,-0.042,-0.105
1701526836.596,19.609,19.609,-19.609,-0.0004,0.0004,0.0236,0.0,-0.041,-0.10200000000000001
1701526836.636,19.609,19.609,-19.609,0.0006000000000000001,0.0,-0.0359,-0.003,-0.042,-0.11800000000000001
1701526836.676,19.609,19.609,-19.609,-0.0006000000000000001,-0.0015,-0.0122,-0.012,-0.037,-0.112
1701526836.716,19.609,19.609,-19.609,-0.00030000000000000003,-0.00030000000000000003,0.0229,-0.02,-0.042,-0.107
1701526836.756,19.609,19.609,-19.609,-0.0011,0.001,-0.0302,-0.017,-0.051000000000000004,-0.107
1701526836.796,19.609,19.609,-19.609,-0.002,-0.0011,0.0247,-0.019,-0.053,-0.114
1701526836.836,19.609,19.609,-19.609,-0.0006000000000000001,0.0012000000000000001,-0.0361,-0.008,-0.053,-0.11
1701526836.876,19.609,19.609,-19.609,0.00030000000000000003,0.0007,0.004200000000000001,0.0,-0.054,-0.111
1701526836.916,19.609,19.609,-19.609,0.0,-0.00030000000000000003,-0.0074,0.007,-0.058,-0.10200000000000001
1701526836.9559999,19.609,19.609,-19.609,0.0013000000000000002,0.0008,0.0071,-0.002,-0.047,-0.113
1701526836.996,19.609,19.609,-19.609,0.0029000000000000002,0.0008,0.0006000000000000001,-0.007,-0.036000000000000004,-0.10300000000000001
1701526837.036,19.609,19.609,-19.609,0.0028,0.0022,0.0086,-0.012,-0.043000000000000003,-0.10400000000000001
1701526837.076,19.609,19.609,-19.609,0.0007,0.0007,-0.038,-0.005,-0.045,-0.10200000000000001
1701526837.116,19.609,19.609,-19.609,-0.0013000000000000002,-0.0001,0.010400000000000001,-0.005,-0.049,-0.106
1701526837.156,19.609,19.609,-19.609,-0.0032,0.0014,-0.008400000000000001,-0.001,-0.041,-0.106
1701526837.1959999,19.609,19.609,-19.609,0.00030000000000000003,0.0012000000000000001,0.027600000000000003,-0.005,-0.038,-0.117
1701526837.236,19.609,19.609,-19.609,-0.0004,0.0009000000000000001,-0.0304,-0.018000000000000002,-0.031,-0.106
1701526837.276,19.609,19.609,-19.609,-0.00030000000000000003,0.0012000000000000001,0.0036000000000000003,-0.026000000000000002,-0.035,-0.096
1701526837.316,19.609,19.609,-19.609,-0.0008,-0.0007,-0.025900000000000003,-0.02,-0.04,-0.101
1701526837.356,19.609,19.609,-19.609,0.0019,0.0014,0.0071,0.0,-0.053,-0.112
1701526837.396,19.609,19.609,-19.609,0.0006000000000000001,0.0009000000000000001,-0.0134,0.01,-0.054,-0.112
1701526837.4359999,19.609,19.609,-19.609,-0.0011,-0.0006000000000000001,-0.0005,0.002,-0.058,-0.10200000000000001
1701526837.476,19.609,19.609,-19.609,0.0006000000000000001,-0.00030000000000000003,-0.0051,0.0,-0.057,-0.108
1701526837.516,19.609,19.609,-19.609,0.0001,-0.00030000000000000003,-0.014400000000000001,-0.001,-0.046,-0.115
1701526837.556,19.609,19.609,-19.609,-0.0025,0.0009000000000000001,0.0443,-0.003,-0.041,-0.109
1701526837.596,19.609,19.609,-19.609,-0.0004,0.0015,-0.017400000000000002,-0.008,-0.043000000000000003,-0.10300000000000001
1701526837.636,19.609,19.609,-19.609,-0.0017000000000000001,-0.0011,0.009600000000000001,-0.005,-0.036000000000000004,-0.111
1701526837.6759999,19.609,19.609,-19.609,0.0011,0.0002,-0.033,-0.01,-0.042,-0.116
1701526837.716,19.609,19.609,-19.609,-0.0009000000000000001,-0.0001,0.035500000000000004,-0.01,-0.041,-0.111
1701526837.756,19.609,19.609,-19.609,0.0007,0.0001,-0.0528,-0.017,-0.041,-0.105
1701526837.796,19.609,19.609,-19.609,0.0011,0.0006000000000000001,0.0405,-0.014,-0.042,-0.111
1701526837.836,19.609,19.609,-19.609,0.0018000000000000002,-0.0031000000000000003,-0.0325,-0.007,-0.049,-0.116
1701526837.876,19.609,19.609,-19.609,0.0,0.0015,0.0292,-0.005,-0.05,-0.109
1701526837.916,19.609,19.609,-19.609,-0.0001,0.0007,-0.039900000000000005,-0.001,-0.05,-0.112
1701526837.956,19.609,19.609,-19.609,-0.0015,-0.0001,0.0238,-0.002,-0.053,-0.111
1701526837.996,19.609,19.609,-19.609,-0.0004,0.0007,-0.0357,-0.007,-0.052000000000000005,-0.113
1701526838.036,19.609,19.609,-19.609,0.0023,0.0012000000000000001,-0.007500000000000001,-0.006,-0.049,-0.111
1701526838.076,19.609,19.609,-19.609,0.00030000000000000003,0.001,0.046200000000000005,-0.008,-0.046,-0.116
1701526838.116,19.609,19.609,-19.609,0.0034000000000000002,-0.0017000000000000001,-0.0296,-0.012,-0.052000000000000005,-0.108
1701526838.156,19.609,19.609,-19.609,0.0,-0.0009000000000000001,-0.0261,-0.012,-0.042,-0.10300000000000001
1701526838.196,19.609,19.609,-19.609,0.0005,0.0016,0.0103,-0.003,-0.042,-0.10300000000000001
1701526838.236,19.609,19.609,-19.609,-0.0026000000000000003,0.0009000000000000001,-0.0229,0.006,-0.045,-0.111
1701526838.276,19.609,19.609,-19.609,0.0007,0.0015,0.0165,-0.002,-0.043000000000000003,-0.117
1701526838.316,19.609,19.609,-19.609,-0.0021000000000000003,0.0001,-0.0287,-0.015,-0.04,-0.105
1701526838.356,19.609,19.609,-19.609,-0.0005,-0.0021000000000000003,0.003,-0.019,-0.04,-0.101
1701526838.396,19.609,19.609,-19.609,0.0,-0.0015,-0.0057,-0.005,-0.05,-0.108
1701526838.436,19.609,19.609,-19.609,0.0031000000000000003,-0.002,-0.011300000000000001,-0.007,-0.055,-0.12
1701526838.476,19.609,19.609,-19.609,-0.0004,-0.0012000000000000001,-0.023,-0.015,-0.039,-0.117
1701526838.516,19.609,19.609,-19.609,-0.001,0.0012000000000000001,0.049300000000000004,-0.016,-0.032,-0.112
1701526838.556,19.609,19.609,-19.609,-0.0001,0.0018000000000000002,-0.0517,-0.016,-0.023,-0.116
1701526838.596,19.609,19.609,-19.609,-0.0004,-0.0018000000000000002,0.0449,-0.006,-0.037,-0.128
1701526838.636,19.609,19.609,-19.609,0.0018000000000000002,-0.0014,-0.0302,-0.012,-0.051000000000000004,-0.108
1701526838.676,19.609,19.609,-19.609,-0.0011,0.0006000000000000001,-0.016,-0.009000000000000001,-0.054,-0.10300000000000001
1701526838.716,19.609,19.609,-19.609,-0.0001,-0.0014,-0.004200000000000001,0.006,-0.052000000000000005,-0.117
1701526838.756,19.609,19.609,-19.609,0.0005,0.0016,0.004,0.011,-0.044,-0.126
1701526838.796,19.609,19.609,-19.609,0.0008,-0.0009000000000000001,0.0004,-0.003,-0.044,-0.122
1701526838.836,19.609,19.609,-19.609,0.0004,-0.0025,-0.0183,-0.024,-0.043000000000000003,-0.113
1701526838.876,19.609,19.609,-19.609,-0.0002,-0.0017000000000000001,0.0067,-0.054,-0.041,-0.113
1701526838.916,19.609,19.609,-19.609,-0.0007,0.0004,0.019100000000000002,-0.012,-0.049,-0.11800000000000001
1701526838.9559999,19.609,19.609,-19.609,0.0023,0.0004,-0.041,-0.009000000000000001,-0.059000000000000004,-0.113
1701526838.996,19.609,19.609,-19.609,-0.0029000000000000002,0.0021000000000000003,0.0367,-0.004,-0.051000000000000004,-0.112
1701526839.036,19.609,19.609,-19.609,0.0009000000000000001,0.0007,0.0151,0.002,-0.049,-0.11
1701526839.076,19.609,19.609,-19.609,-0.0017000000000000001,-0.0009000000000000001,0.02,0.002,-0.043000000000000003,-0.11
1701526839.116,19.609,19.609,-19.609,-0.0018000000000000002,0.0013000000000000002,-0.0034000000000000002,0.007,-0.038,-0.108
1701526839.156,19.609,19.609,-19.609,0.0007,-0.0015,-0.0079,-0.004,-0.047,-0.114
1701526839.1959999,19.609,19.609,-19.609,-0.0012000000000000001,-0.001,0.0058000000000000005,-0.011,-0.042,-0.105
1701526839.236,19.609,19.609,-19.609,0.0018000000000000002,0.0012000000000000001,-0.0073,-0.015,-0.039,-0.105
1701526839.276,19.609,19.609,-19.609,-0.0011,-0.0007,0.0053,0.001,-0.042,-0.099
1701526839.316,19.609,19.609,-19.609,0.0023,-0.0006000000000000001,-0.012700000000000001,0.003,-0.066,-0.113
1701526839.356,19.609,19.609,-19.609,-0.0009000000000000001,-0.0035,-0.004200000000000001,-0.001,-0.046,-0.125
1701526839.396,19.609,19.609,-19.609,0.0013000000000000002,-0.0017000000000000001,0.0007,-0.023,-0.04,-0.10400000000000001
1701526839.4359999,19.609,19.609,-19.609,0.0001,0.0017000000000000001,-0.0051,-0.03,-0.038,-0.098
1701526839.476,19.609,19.609,-19.609,0.0001,-0.00030000000000000003,-0.0021000000000000003,-0.001,-0.043000000000000003,-0.112
1701526839.516,19.609,19.609,-19.609,0.0014,-0.0027,-0.009300000000000001,0.011,-0.057,-0.125
1701526839.556,19.609,19.609,-19.609,0.0,0.0005,0.0149,-0.002,-0.051000000000000004,-0.112
1701526839.596,19.609,19.609,-19.609,-0.00030000000000000003,-0.0033,-0.0145,-0.018000000000000002,-0.047,-0.098
1701526839.636,19.609,19.609,-19.609,-0.0014,-0.0008,0.0043,-0.016,-0.043000000000000003,-0.113
1701526839.6759999,19.609,19.609,-19.609,-0.0015,-0.0001,-0.0097,-0.011,-0.047,-0.136
1701526839.716,19.609,19.609,-19.609,0.0004,-0.0027,-0.006900000000000001,-0.031,-0.043000000000000003,-0.112
1701526839.756,19.609,19.609,-19.609,0.0006000000000000001,0.0018000000000000002,0.0002,-0.021,-0.042,-0.108
1701526839.796,19.609,19.609,-19.609,-0.001,-0.0007,-0.0123,0.0,-0.05,-0.122
1701526839.836,19.609,19.609,-19.609,-0.0014,0.00030000000000000003,-0.027200000000000002,0.0,-0.058,-0.133
1701526839.876,19.609,19.609,-19.609,0.0011,0.001,0.0291,-0.021,-0.049,-0.117
1701526839.916,19.609,19.609,-19.609,-0.0018000000000000002,0.0,0.002,-0.031,-0.047,-0.115
1701526839.956,19.609,19.609,-19.609,0.0006000000000000001,-0.001,0.012400000000000001,-0.03,-0.039,-0.116
1701526839.996,19.609,19.609,-19.609,0.0011,-0.0007,-0.0286,-0.021,-0.041,-0.12
1701526840.036,19.609,19.609,-19.609,-0.0016,-0.0011,-0.0019,-0.013000000000000001,-0.047,-0.11900000000000001
1701526840.076,19.609,19.609,-19.609,0.0024000000000000002,-0.0005,0.0048000000000000004,-0.009000000000000001,-0.052000000000000005,-0.113
1701526840.116,19.609,19.609,-19.609,-0.00030000000000000003,0.0009000000000000001,-0.015300000000000001,-0.011,-0.047,-0.111
1701526840.156,19.609,19.609,-19.609,0.0014,0.0001,0.020200000000000003,-0.005,-0.049,-0.112
1701526840.196,19.609,19.609,-19.609,0.00030000000000000003,-0.0006000000000000001,-0.036000000000000004,-0.01,-0.042,-0.108
1701526840.236,19.609,19.609,-19.609,-0.0017000000000000001,-0.0005,0.0386,0.0,-0.047,-0.11800000000000001
1701526840.276,19.609,19.609,-19.609,-0.0007,0.0004,-0.015600000000000001,-0.009000000000000001,-0.049,-0.108
1701526840.316,19.609,19.609,-19.609,0.0016,-0.0024000000000000002,-0.0131,-0.003,-0.051000000000000004,-0.112
1701526840.356,19.609,19.609,-19.609,0.0034000000000000002,-0.0012000000000000001,-0.026600000000000002,0.001,-0.04,-0.098
1701526840.396,19.609,19.609,-19.609,-0.0005,-0.0004,0.021500000000000002,0.006,-0.037,-0.112
1701526840.436,19.609,19.609,-19.609,0.0012000000000000001,0.0006000000000000001,-0.0103,-0.004,0.0,-0.114
1701526840.476,19.609,19.609,-19.609,0.0014,0.0011,0.030000000000000002,-0.009000000000000001,-0.043000000000000003,-0.098
1701526840.516,19.609,19.609,-19.609,-0.0011,0.0007,-0.038200000000000005,-0.012,-0.046,-0.1
1701526840.556,19.609,19.609,-19.609,0.00030000000000000003,0.0013000000000000002,0.024900000000000002,0.018000000000000002,-0.044,-0.113
1701526840.596,19.609,19.609,-19.609,0.0005,-0.0015,-0.0262,0.019,-0.066,-0.12
1701526840.636,19.609,19.609,-19.609,-0.0004,0.0,0.015000000000000001,0.014,-0.058,-0.115
1701526840.676,19.609,19.609,-19.609,0.0005,0.0,-0.029300000000000003,0.022,-0.059000000000000004,-0.12
1701526840.716,19.609,19.609,-19.609,0.0021000000000000003,-0.0015,0.034,-0.009000000000000001,-0.038,-0.126
1701526840.756,19.609,19.609,-19.609,0.0031000000000000003,0.00030000000000000003,-0.020900000000000002,-0.004,-0.032,-0.129
1701526840.796,19.609,19.609,-19.609,-0.0007,-0.0008,-0.048100000000000004,0.002,-0.03,-0.125
1701526840.836,19.609,19.609,-19.609,0.0016,0.0009000000000000001,0.055200000000000006,-0.004,-0.036000000000000004,-0.115
1701526840.876,19.609,19.609,-19.609,0.0,-0.0025,-0.0361,-0.004,-0.038,-0.106
1701526840.916,19.609,19.609,-19.609,0.0022,0.0001,0.0009000000000000001,-0.02,-0.038,-0.111
1701526840.9559999,19.609,19.609,-19.609,-0.00030000000000000003,0.0,-0.0128,-0.02,-0.035,-0.117
1701526840.996,19.609,19.609,-19.609,0.001,0.0006000000000000001,-0.0125,-0.021,-0.041,-0.114
1701526841.036,19.609,19.609,-19.609,0.0009000000000000001,0.0008,0.0196,-0.018000000000000002,-0.028,-0.114
1701526841.076,19.609,19.609,-19.609,-0.0012000000000000001,0.00030000000000000003,-0.042300000000000004,-0.015,-0.042,-0.11800000000000001
1701526841.116,19.609,19.609,-19.609,-0.0002,0.0006000000000000001,0.0499,-0.016,-0.038,-0.117
1701526841.156,19.609,19.609,-19.609,-0.0015,0.001,-0.0369,-0.007,-0.043000000000000003,-0.114
1701526841.1959999,19.609,19.609,-19.609,-0.0014,-0.0006000000000000001,-0.0183,-0.008,-0.042,-0.107
1701526841.236,19.609,19.609,-19.609,-0.0007,-0.0014,0.033,-0.003,-0.049,-0.114
1701526841.276,19.609,19.609,-19.609,-0.0002,-0.0012000000000000001,-0.0251,0.002,-0.044,-0.107
1701526841.316,19.609,19.609,-19.609,0.0006000000000000001,0.00030000000000000003,0.0177,-0.006,-0.041,-0.1
1701526841.356,19.609,19.609,-19.609,-0.0016,-0.0015,-0.0005,-0.005,-0.041,-0.098
1701526841.396,19.609,19.609,-19.609,0.0009000000000000001,0.0018000000000000002,-0.017,0.012,-0.033,-0.099
1701526841.4359999,19.609,19.609,-19.609,0.0014,0.00030000000000000003,0.0063,-0.01,-0.016,-0.115
1701526841.476,19.609,19.609,-19.609,-0.0004,-0.00030000000000000003,-0.0218,-0.003,-0.011,-0.114
1701526841.516,19.609,19.609,-19.609,0.0008,0.0013000000000000002,-0.0027,-0.029,-0.017,-0.094
1701526841.556,19.609,19.609,-19.609,0.0007,-0.00030000000000000003,-0.007200000000000001,-0.021,-0.018000000000000002,-0.094
1701526841.596,19.609,19.609,-19.609,0.0028,-0.0001,0.010100000000000001,0.002,-0.018000000000000002,-0.111
1701526841.636,19.609,19.609,-19.609,0.0011,-0.0025,-0.020300000000000002,0.004,-0.036000000000000004,-0.117
1701526841.6759999,19.609,19.609,-19.609,0.0028,0.001,0.0325,-0.026000000000000002,-0.03,-0.10300000000000001
1701526841.716,19.609,19.609,-19.609,0.0033,-0.0009000000000000001,-0.0717,-0.036000000000000004,-0.042,-0.094
1701526841.756,19.609,19.609,-19.609,-0.0031000000000000003,0.0019,0.012400000000000001,-0.038,-0.036000000000000004,-0.10300000000000001
1701526841.796,19.609,19.609,-19.609,0.0029000000000000002,0.0007,0.0114,-0.023,-0.028,-0.114
1701526841.836,19.609,19.609,-19.609,0.00030000000000000003,-0.0001,-0.0152,-0.021,-0.036000000000000004,-0.11
1701526841.876,19.609,19.609,-19.609,0.0004,-0.0011,0.0158,-0.012,-0.048,-0.113
1701526841.916,19.609,19.609,-19.609,0.0002,-0.0017000000000000001,0.0073,-0.005,-0.052000000000000005,-0.10400000000000001
1701526841.956,19.609,19.609,-19.609,0.0028,0.0016,0.0015,-0.009000000000000001,-0.043000000000000003,-0.1
1701526841.996,19.609,19.609,-19.609,0.0012000000000000001,0.00030000000000000003,-0.027100000000000003,-0.014,-0.054,-0.093
1701526842.036,19.609,19.609,-19.609,0.0001,-0.0006000000000000001,0.046200000000000005,-0.013000000000000001,-0.058,-0.10200000000000001
1701526842.076,19.609,19.609,-19.609,0.0016,0.0,-0.051800000000000006,-0.011,-0.053,-0.10300000000000001
1701526842.116,19.609,19.609,-19.609,-0.0009000000000000001,-0.0005,0.06520000000000001,-0.001,-0.056,-0.101
1701526842.156,19.609,19.609,-19.609,0.0012000000000000001,-0.00030000000000000003,0.013300000000000001,0.007,-0.053,-0.10200000000000001
1701526842.196,19.609,19.609,-19.609,-0.0021000000000000003,0.0011,0.0053,0.004,-0.046,-0.098
1701526842.236,19.609,19.609,-19.609,-0.0023,-0.0015,-0.0006000000000000001,0.006,-0.034,-0.105
1701526842.276,19.609,19.609,-19.609,-0.0006000000000000001,0.0007,-0.0021000000000000003,0.004,-0.049,-0.111
1701526842.316,19.609,19.609,-19.609,-0.0001,0.0012000000000000001,0.0017000000000000001,0.025,-0.04,-0.123
1701526842.356,19.609,19.609,-19.609,0.00030000000000000003,0.0018000000000000002,-0.003,-0.023,-0.041,-0.12
1701526842.396,19.609,19.609,-19.609,0.0011,0.0,-0.0057,-0.012,-0.042,-0.10300000000000001
1701526842.436,19.609,19.609,-19.609,0.0,-0.0006000000000000001,0.0148,-0.002,-0.057,-0.124
1701526842.476,19.609,19.609,-19.609,-0.0013000000000000002,-0.0015,-0.0212,0.007,-0.058,-0.133
1701526842.516,19.609,19.609,-19.609,0.0,-0.0001,0.0021000000000000003,-0.007,-0.053,-0.125
1701526842.556,19.609,19.609,-19.609,-0.0005,-0.0007,0.0036000000000000003,-0.014,-0.067,-0.116
1701526842.596,19.609,19.609,-19.609,-0.0005,0.0017000000000000001,-0.0059,-0.016,-0.059000000000000004,-0.111
1701526842.636,19.609,19.609,-19.609,-0.002,-0.0014,-0.009600000000000001,-0.002,-0.064,-0.12
1701526842.676,19.609,19.609,-19.609,-0.0009000000000000001,0.0014,0.004,0.006,-0.07,-0.127
1701526842.716,19.609,19.609,-19.609,0.0015,0.0019,-0.0099,0.014,-0.069,-0.115
1701526842.756,19.609,19.609,-19.609,-0.0017000000000000001,-0.0014,-0.0142,0.024,-0.053,-0.115
1701526842.796,19.609,19.609,-19.609,0.0014,0.0004,0.0053,0.012,-0.041,-0.122
1701526842.836,19.609,19.609,-19.609,0.0028,-0.0018000000000000002,-0.0054,-0.016,-0.036000000000000004,-0.117
1701526842.876,19.609,19.609,-19.609,0.0012000000000000001,-0.0012000000000000001,-0.0029000000000000002,-0.003,-0.028,-0.099
1701526842.916,19.609,19.609,-19.609,0.0002,-0.00030000000000000003,-0.007,0.007,-0.026000000000000002,-0.10400000000000001
1701526842.9559999,19.609,19.609,-19.609,0.0016,0.00030000000000000003,-0.0022,0.015,-0.027,-0.115
1701526842.996,19.609,19.609,-19.609,-0.00030000000000000003,0.0008,-0.0034000000000000002,0.016,-0.035,-0.115
1701526843.036,19.609,19.609,-19.609,0.0001,-0.0017000000000000001,0.0035,0.003,-0.04,-0.10400000000000001
1701526843.076,19.609,19.609,-19.609,0.0,-0.0001,-0.008400000000000001,-0.003,-0.038,-0.107
1701526843.116,19.609,19.609,-19.609,-0.0006000000000000001,-0.001,-0.0019,0.003,-0.053,-0.115
1701526843.156,19.609,19.609,-19.609,-0.0006000000000000001,-0.0007,-0.0036000000000000003,0.003,-0.054,-0.112
1701526843.1959999,19.609,19.609,-19.609,0.0021000000000000003,-0.0017000000000000001,-0.0061,0.007,-0.058,-0.105
1701526843.236,19.609,19.609,-19.609,0.0027,0.00030000000000000003,-0.0039000000000000003,0.004,-0.059000000000000004,-0.105
1701526843.276,19.609,19.609,-19.609,0.005,0.0014,0.006200000000000001,0.004,-0.048,-0.11900000000000001
1701526843.316,19.609,19.609,-19.609,-0.0004,0.0009000000000000001,-0.0134,-0.009000000000000001,-0.051000000000000004,-0.115
1701526843.356,19.609,19.609,-19.609,0.0015,-0.0014,-0.0036000000000000003,-0.013000000000000001,-0.041,-0.114
1701526843.396,19.609,19.609,-19.609,0.0005,-0.0001,-0.00030000000000000003,-0.014,-0.046,-0.114
1701526843.4359999,19.609,19.609,-19.609,-0.0008,0.0016,-0.0012000000000000001,-0.011,-0.035,-0.1
1701526843.476,19.609,19.609,-19.609,-0.0018000000000000002,0.0018000000000000002,0.008400000000000001,0.0,-0.031,-0.107
1701526843.516,19.609,19.609,-19.609,0.00030000000000000003,0.0,-0.009300000000000001,-0.004,-0.029,-0.115
1701526843.556,19.609,19.609,-19.609,0.0009000000000000001,0.0,-0.012,-0.025,-0.027,-0.11
1701526843.596,19.609,19.609,-19.609,0.0008,-0.0019,-0.0005,-0.036000000000000004,-0.027,-0.099
1701526843.636,19.609,19.609,-19.609,0.0014,-0.0004,0.0183,-0.007,-0.032,-0.107
1701526843.6759999,19.609,19.609,-19.609,-0.0018000000000000002,-0.0012000000000000001,-0.0198,0.014,-0.053,-0.11900000000000001
1701526843.716,19.609,19.609,-19.609,-0.00030000000000000003,-0.0009000000000000001,-0.0037,0.012,-0.052000000000000005,-0.11
1701526843.756,19.609,19.609,-19.609,0.0001,-0.0008,-0.011300000000000001,0.0,-0.056,-0.095
1701526843.796,19.609,19.609,-19.609,0.0019,-0.0007,0.0014,-0.001,-0.04,-0.111
1701526843.836,19.609,19.609,-19.609,-0.0005,-0.001,-0.007,0.003,-0.04,-0.11800000000000001
1701526843.876,19.609,19.609,-19.609,-0.0018000000000000002,-0.0008,-0.011300000000000001,-0.002,-0.059000000000000004,-0.113
1701526843.916,19.609,19.609,-19.609,0.0016,0.0,0.015300000000000001,-0.016,-0.042,-0.109
1701526843.956,19.609,19.609,-19.609,0.0005,0.0012000000000000001,-0.0067,-0.015,-0.05,-0.12
1701526843.996,19.609,19.609,-19.609,-0.0021000000000000003,-0.0015,-0.0068000000000000005,0.003,-0.054,-0.129
1701526844.036,19.609,19.609,-19.609,-0.0028,-0.0004,0.0023,-0.014,-0.043000000000000003,-0.125
1701526844.076,19.609,19.609,-19.609,-0.0007,0.0,-0.0027,-0.018000000000000002,-0.034,-0.11900000000000001
1701526844.116,19.609,19.609,-19.609,0.0014,0.0036000000000000003,-0.0007,-0.034,-0.034,-0.115
1701526844.156,19.609,19.609,-19.609,0.0001,0.0001,-0.007,-0.019,-0.04,-0.122
1701526844.196,19.609,19.609,-19.609,0.001,-0.0004,-0.0043,-0.017,-0.042,-0.116
1701526844.236,19.609,19.609,-19.609,-0.0002,0.0004,-0.0032,-0.006,-0.04,-0.106
1701526844.276,19.609,19.609,-19.609,0.0009000000000000001,-0.0007,0.001,-0.006,-0.045,-0.109
1701526844.316,19.609,19.609,-19.609,0.0002,-0.00030000000000000003,-0.0007,0.003,-0.035,-0.11900000000000001
1701526844.356,19.609,19.609,-19.609,0.0005,-0.0005,-0.019200000000000002,-0.013000000000000001,-0.037,-0.111
1701526844.396,19.609,19.609,-19.609,-0.0004,-0.0004,-0.0043,-0.012,-0.044,-0.1
1701526844.436,19.609,19.609,-19.609,-0.0004,-0.0015,0.005,-0.018000000000000002,-0.044,-0.109
1701526844.476,19.609,19.609,-19.609,0.00030000000000000003,-0.0002,0.0018000000000000002,0.0,-0.032,-0.11
1701526844.516,19.609,19.609,-19.609,0.0039000000000000003,0.0,-0.0086,-0.002,-0.037,-0.116
1701526844.556,19.609,19.609,-19.609,0.0007,0.0009000000000000001,-0.0051,-0.052000000000000005,-0.042,-0.107
1701526844.596,19.609,19.609,-19.609,-0.001,-0.0004,-0.0015,-0.025,-0.038,-0.097
1701526844.636,19.609,19.609,-19.609,-0.001,0.0015,-0.0038,-0.03,-0.033,-0.098
1701526844.676,19.609,19.609,-19.609,-0.0006000000000000001,-0.002,-0.0023,-0.01,-0.03,-0.1
1701526844.716,19.609,19.609,-19.609,0.0004,0.0015,-0.0146,-0.001,-0.045,-0.108
1701526844.756,19.609,19.609,-19.609,0.0017000000000000001,-0.0015,0.0009000000000000001,0.0,-0.051000000000000004,-0.111
1701526844.796,19.609,19.609,-19.609,-0.0033,-0.0019,0.0055000000000000005,-0.016,-0.054,-0.108
1701526844.836,19.609,19.609,-19.609,0.0017000000000000001,0.0004,-0.0076,-0.043000000000000003,-0.001,-0.113
1701526844.876,19.609,19.609,-19.609,0.0018000000000000002,-0.0015,-0.004,-0.024,0.007,-0.109
1701526844.916,19.609,19.609,-19.609,0.0,0.0014,0.0021000000000000003,-0.057,0.002,-0.1
1701526844.9559999,19.609,19.609,-19.609,0.0025,0.0007,-0.0006000000000000001,-0.057,-0.047,-0.124
1701526844.996,19.609,19.609,-19.609,0.0006000000000000001,0.0004,-0.0006000000000000001,-0.051000000000000004,-0.077,-0.14
1701526845.036,19.609,19.609,-19.609,-0.0017000000000000001,-0.001,0.00030000000000000003,-0.054,-0.073,-0.134
1701526845.076,19.609,19.609,-19.609,0.0008,-0.001,0.0037,-0.044,-0.059000000000000004,-0.126
1701526845.116,19.609,19.609,-19.609,0.0006000000000000001,-0.0007,-0.0007,-0.032,-0.055,-0.128
1701526845.156,19.609,19.609,-19.609,-0.0009000000000000001,-0.00030000000000000003,0.0058000000000000005,-0.016,-0.055,-0.12
1701526845.1959999,19.609,19.609,-19.609,-0.0007,-0.0001,-0.0172,-0.005,-0.056,-0.10200000000000001
1701526845.236,19.609,19.609,-19.609,-0.0006000000000000001,0.0006000000000000001,0.0001,0.005,-0.067,-0.098
1701526845.276,19.609,19.609,-19.609,0.0004,0.0001,0.0247,0.014,-0.064,-0.11
1701526845.316,19.609,19.609,-19.609,-0.0009000000000000001,0.0001,-0.0216,0.007,-0.041,-0.112
1701526845.356,19.609,19.609,-19.609,-0.0029000000000000002,-0.0016,0.0166,-0.009000000000000001,-0.034,-0.109
1701526845.396,19.609,19.609,-19.609,0.0007,0.0017000000000000001,-0.015700000000000002,-0.018000000000000002,-0.018000000000000002,-0.108
1701526845.4359999,19.609,19.609,-19.609,0.0015,-0.0006000000000000001,0.0037,-0.008,0.0,-0.097
1701526845.476,19.609,19.609,-19.609,0.0011,0.0002,-0.0131,0.003,-0.011,-0.094
1701526845.516,19.609,19.609,-19.609,0.0,0.00030000000000000003,-0.0015,0.02,-0.02,-0.108
1701526845.556,19.609,19.609,-19.609,0.0,0.0007,-0.0076,-0.012,-0.015,-0.093
1701526845.596,19.609,19.609,-19.609,-0.0007,0.0013000000000000002,0.0015,-0.034,-0.012,-0.068
1701526845.636,19.609,19.609,-19.609,0.0004,0.0008,0.0027,-0.007,-0.032,-0.096
1701526845.6759999,19.609,19.609,-19.609,-0.0032,-0.0007,-0.056100000000000004,0.019,-0.048,-0.111
1701526845.716,19.609,19.609,-19.609,0.0014,0.0001,-0.005,0.006,-0.052000000000000005,-0.10200000000000001
1701526845.756,19.609,19.609,-19.609,-0.0006000000000000001,0.0006000000000000001,-0.020300000000000002,-0.009000000000000001,-0.059000000000000004,-0.091
1701526845.796,19.609,19.609,-19.609,0.0007,-0.0017000000000000001,-0.0023,0.016,-0.062,-0.11900000000000001
1701526845.836,19.609,19.609,-19.609,0.0026000000000000003,-0.0007,0.0123,0.008,-0.06,-0.122
1701526845.876,19.609,19.609,-19.609,-0.00030000000000000003,-0.0016,-0.027200000000000002,-0.018000000000000002,-0.052000000000000005,-0.105
1701526845.916,19.609,19.609,-19.609,0.0008,-0.0017000000000000001,0.0253,-0.032,-0.01,-0.092
1701526845.956,19.609,19.609,-19.609,0.0004,0.0018000000000000002,-0.019700000000000002,-0.018000000000000002,-0.04,-0.115
1701526845.996,19.609,19.609,-19.609,0.0004,0.0007,0.0142,-0.012,-0.041,-0.124
1701526846.036,19.609,19.609,-19.609,0.0004,-0.0006000000000000001,-0.037700000000000004,-0.015,-0.015,-0.117
1701526846.076,19.609,19.609,-19.609,-0.0006000000000000001,0.0023,0.0334,-0.014,-0.048,-0.114
1701526846.116,19.609,19.609,-19.609,0.0005,0.0,-0.0308,-0.022,-0.038,-0.111
1701526846.156,19.609,19.609,-19.609,-0.0011,0.0005,0.007500000000000001,-0.016,-0.045,-0.113
1701526846.196,19.609,19.609,-19.609,0.0,0.0018000000000000002,-0.0004,-0.012,-0.056,-0.11800000000000001
1701526846.236,19.609,19.609,-19.609,0.0018000000000000002,-0.0001,0.0051,0.001,-0.052000000000000005,-0.121
1701526846.276,19.609,19.609,-19.609,-0.0006000000000000001,0.0024000000000000002,-0.0187,-0.002,-0.045,-0.108
1701526846.316,19.609,19.609,-19.609,-0.0006000000000000001,-0.0012000000000000001,0.008700000000000001,-0.005,-0.029,-0.105
1701526846.356,19.609,19.609,-19.609,-0.00030000000000000003,0.00030000000000000003,-0.014400000000000001,-0.011,-0.034,-0.114
1701526846.396,19.609,19.609,-19.609,-0.001,0.00030000000000000003,-0.0015,-0.007,-0.04,-0.115
1701526846.436,19.609,19.609,-19.609,0.00030000000000000003,-0.001,-0.0021000000000000003,-0.004,-0.044,-0.114
1701526846.476,19.609,19.609,-19.609,0.0004,-0.0005,-0.0123,-0.003,-0.027,-0.096
1701526846.516,19.609,19.609,-19.609,-0.0026000000000000003,-0.0012000000000000001,-0.004200000000000001,0.037,-0.029,-0.11800000000000001
1701526846.556,19.609,19.609,-19.609,0.0004,0.002,0.0049,0.009000000000000001,-0.026000000000000002,-0.11800000000000001
1701526846.596,19.609,19.609,-19.609,-0.0002,0.0007,-0.016800000000000002,0.0,-0.026000000000000002,-0.116
1701526846.636,19.609,19.609,-19.609,0.00030000000000000003,-0.0001,0.0218,-0.01,-0.041,-0.105
1701526846.676,19.609,19.609,-19.609,0.001,-0.0007,-0.023200000000000002,0.004,-0.058,-0.10300000000000001
1701526846.716,19.609,19.609,-19.609,0.0,-0.0026000000000000003,-0.010100000000000001,0.018000000000000002,-0.069,-0.12
1701526846.756,19.609,19.609,-19.609,0.0002,-0.0007,0.011300000000000001,0.018000000000000002,-0.07100000000000001,-0.117
1701526846.796,19.609,19.609,-19.609,0.0005,-0.0015,-0.019,0.007,-0.064,-0.112
1701526846.836,19.609,19.609,-19.609,0.0001,-0.0005,0.0012000000000000001,0.001,-0.055,-0.107
1701526846.876,19.609,19.609,-19.609,-0.0007,-0.0014,-0.0172,0.0,-0.047,-0.122
1701526846.916,19.609,19.609,-19.609,0.0,0.0001,0.0134,-0.012,-0.044,-0.105
1701526846.9559999,19.609,19.609,-19.609,-0.0022,-0.0004,0.010700000000000001,-0.016,-0.045,-0.10400000000000001
1701526846.996,19.609,19.609,-19.609,-0.0025,-0.0009000000000000001,-0.025400000000000002,-0.008,-0.048,-0.109
1701526847.036,19.609,19.609,-19.609,-0.0002,-0.002,-0.0009000000000000001,0.006,-0.049,-0.121
1701526847.076,19.609,19.609,-19.609,-0.0007,0.00030000000000000003,0.009600000000000001,0.0,-0.044,-0.115
1701526847.116,19.609,19.609,-19.609,0.0015,-0.0019,-0.0106,-0.017,-0.038,-0.11
1701526847.156,19.609,19.609,-19.609,0.0,0.0,-0.0029000000000000002,-0.019,-0.037,-0.117
1701526847.1959999,19.609,19.609,-19.609,0.0016,-0.0007,-0.031,-0.013000000000000001,-0.032,-0.114
1701526847.236,19.609,19.609,-19.609,0.00030000000000000003,0.0011,-0.040100000000000004,-0.007,-0.047,-0.114
1701526847.276,19.609,19.609,-19.609,0.0009000000000000001,-0.0009000000000000001,0.038,-0.007,-0.048,-0.11
1701526847.316,19.609,19.609,-19.609,-0.0037,-0.0029000000000000002,-0.025900000000000003,0.001,-0.047,-0.106
1701526847.356,19.609,19.609,-19.609,0.0036000000000000003,0.0013000000000000002,0.0118,0.003,-0.055,-0.109
1701526847.396,19.609,19.609,-19.609,-0.0017000000000000001,0.0,-0.039900000000000005,0.01,-0.051000000000000004,-0.113
1701526847.4359999,19.609,19.609,-19.609,0.0021000000000000003,0.0001,0.0368,0.001,-0.05,-0.111
1701526847.476,19.609,19.609,-19.609,0.0002,0.0011,-0.0505,0.004,-0.061,-0.107
1701526847.516,19.609,19.609,-19.609,0.0006000000000000001,0.0001,0.0456,0.003,-0.059000000000000004,-0.099
1701526847.556,19.609,19.609,-19.609,0.0,-0.0007,-0.036000000000000004,0.013000000000000001,-0.037,-0.101
1701526847.596,19.609,19.609,-19.609,-0.0014,0.001,0.0081,0.009000000000000001,-0.031,-0.10400000000000001
1701526847.636,19.609,19.609,-19.609,0.0012000000000000001,-0.0014,-0.004200000000000001,0.007,-0.04,-0.117
1701526847.6759999,19.609,19.609,-19.609,-0.0008,-0.002,-0.0183,0.0,-0.037,-0.125
1701526847.716,19.609,19.609,-19.609,0.0002,0.0,0.0161,-0.036000000000000004,-0.036000000000000004,-0.109
1701526847.756,19.609,19.609,-19.609,-0.0013000000000000002,-0.0008,-0.023,-0.031,-0.044,-0.106
1701526847.796,19.609,19.609,-19.609,-0.0014,-0.0012000000000000001,0.0012000000000000001,0.005,-0.058,-0.127
1701526847.836,19.609,19.609,-19.609,0.0015,-0.0004,0.017400000000000002,0.005,-0.056,-0.125
1701526847.876,19.609,19.609,-19.609,0.0007,-0.0019,-0.0234,0.0,-0.052000000000000005,-0.109
1701526847.916,19.609,19.609,-19.609,0.0011,0.00030000000000000003,-0.0006000000000000001,-0.012,-0.047,-0.10400000000000001
1701526847.956,19.609,19.609,-19.609,-0.0001,-0.0017000000000000001,-0.0151,-0.02,-0.036000000000000004,-0.111
1701526847.996,19.609,19.609,-19.609,0.0004,-0.00030000000000000003,0.0064,-0.009000000000000001,-0.056,-0.11
1701526848.036,19.609,19.609,-19.609,0.0021000000000000003,0.0007,-0.0014,-0.011,-0.034,-0.11
1701526848.076,19.609,19.609,-19.609,0.0014,0.0007,0.0064,-0.004,-0.034,-0.11
1701526848.116,19.609,19.609,-19.609,0.0006000000000000001,-0.002,-0.0183,-0.005,-0.037,-0.12
1701526848.156,19.609,19.609,-19.609,0.0014,-0.0018000000000000002,0.0158,-0.047,-0.046,-0.113
1701526848.196,19.609,19.609,-19.609,-0.0021000000000000003,-0.0019,-0.035,-0.022,-0.032,-0.111
1701526848.236,19.609,19.609,-19.609,0.0025,-0.0009000000000000001,0.0258,-0.023,-0.044,-0.114
1701526848.276,19.609,19.609,-19.609,0.0022,-0.0029000000000000002,-0.0078000000000000005,-0.01,-0.048,-0.115
1701526848.316,19.609,19.609,-19.609,-0.0012000000000000001,0.0004,-0.0392,0.014,-0.055,-0.117
1701526848.356,19.609,19.609,-19.609,0.0007,0.0013000000000000002,0.042,0.003,-0.054,-0.108
1701526848.396,19.609,19.609,-19.609,0.0,-0.0001,-0.037200000000000004,-0.003,-0.054,-0.10400000000000001
1701526848.436,19.609,19.609,-19.609,-0.0021000000000000003,0.0011,0.0011,-0.003,-0.045,-0.109
1701526848.476,19.609,19.609,-19.609,0.0004,0.0004,-0.0051,0.004,-0.051000000000000004,-0.105
1701526848.516,19.609,19.609,-19.609,0.00030000000000000003,-0.002,-0.0228,0.0,-0.055,-0.105
1701526848.556,19.609,19.609,-19.609,0.0039000000000000003,0.0012000000000000001,0.049100000000000005,0.005,-0.043000000000000003,-0.111
1701526848.596,19.609,19.609,-19.609,0.0033,-0.0007,-0.0473,0.006,-0.037,-0.108
1701526848.636,19.609,19.609,-19.609,-0.0006000000000000001,0.00030000000000000003,0.045200000000000004,0.004,-0.031,-0.109
1701526848.676,19.609,19.609,-19.609,0.0018000000000000002,0.0,-0.0488,-0.007,-0.028,-0.111
1701526848.716,19.609,19.609,-19.609,0.0015,-0.0004,0.0364,-0.021,-0.027,-0.10200000000000001
1701526848.756,19.609,19.609,-19.609,-0.0025,0.0015,-0.027200000000000002,-0.012,-0.017,-0.098
1701526848.796,19.609,19.609,-19.609,-0.001,0.0014,0.0176,0.003,-0.028,-0.109
1701526848.836,19.609,19.609,-19.609,0.0022,0.001,-0.0405,0.018000000000000002,-0.047,-0.12
1701526848.876,19.609,19.609,-19.609,0.001,0.0014,0.040100000000000004,0.014,-0.049,-0.108
1701526848.916,19.609,19.609,-19.609,-0.0024000000000000002,0.0006000000000000001,-0.047900000000000005,0.005,-0.05,-0.101
1701526848.9559999,19.609,19.609,-19.609,-0.0009000000000000001,-0.0004,0.0546,-0.004,-0.046,-0.108
1701526848.996,19.609,19.609,-19.609,-0.0028,0.0012000000000000001,0.0217,-0.001,-0.044,-0.117
1701526849.036,19.609,19.609,-19.609,0.0,0.0009000000000000001,0.007500000000000001,-0.005,-0.045,-0.11
1701526849.076,19.609,19.609,-19.609,0.0006000000000000001,-0.0011,-0.0183,0.0,-0.04,-0.105
1701526849.116,19.609,19.609,-19.609,0.0028,0.0009000000000000001,-0.0349,0.01,-0.045,-0.114
1701526849.156,19.609,19.609,-19.609,0.0004,0.0,0.027100000000000003,0.007,-0.047,-0.114
1701526849.1959999,19.609,19.609,-19.609,-0.00030000000000000003,0.0015,-0.0054,-0.01,-0.044,-0.11
1701526849.236,19.609,19.609,-19.609,-0.0007,-0.0017000000000000001,0.0025,-0.011,-0.048,-0.111
1701526849.276,19.609,19.609,-19.609,-0.0004,-0.0015,0.002,-0.004,-0.05,-0.111
1701526849.316,19.609,19.609,-19.609,0.0025,0.0017000000000000001,0.0009000000000000001,-0.009000000000000001,-0.043000000000000003,-0.11
1701526849.356,19.609,19.609,-19.609,-0.0019,-0.0018000000000000002,-0.004,-0.01,-0.04,-0.115
1701526849.396,19.609,19.609,-19.609,-0.0021000000000000003,0.0,-0.0032,-0.002,-0.04,-0.11
1701526849.4359999,19.609,19.609,-19.609,0.0026000000000000003,0.00030000000000000003,0.0006000000000000001,0.005,-0.041,-0.115
1701526849.476,19.609,19.609,-19.609,0.002,-0.0006000000000000001,-0.0088,-0.004,-0.042,-0.11
1701526849.516,19.609,19.609,-19.609,-0.0019,-0.00030000000000000003,0.007500000000000001,-0.011,-0.044,-0.105
1701526849.556,19.609,19.609,-19.609,-0.00030000000000000003,-0.0007,-0.0078000000000000005,-0.007,-0.039,-0.106
1701526849.596,19.609,19.609,-19.609,-0.0004,-0.0004,-0.0026000000000000003,0.014,-0.036000000000000004,-0.10300000000000001
1701526849.636,19.609,19.609,-19.609,-0.0005,-0.0005,-0.0023,0.006,-0.035,-0.116
1701526849.6759999,19.609,19.609,-19.609,0.0023,0.0006000000000000001,0.001,-0.003,-0.035,-0.113
1701526849.716,19.609,19.609,-19.609,0.0008,-0.0007,0.016,-0.015,-0.032,-0.105
1701526849.756,19.609,19.609,-19.609,-0.0029000000000000002,-0.0001,-0.0189,-0.015,-0.031,-0.10200000000000001
1701526849.796,19.609,19.609,-19.609,0.0008,-0.0007,0.0004,0.0,-0.039,-0.113
1701526849.836,19.609,19.609,-19.609,0.0029000000000000002,0.0012000000000000001,-0.00030000000000000003,0.023,-0.055,-0.11800000000000001
1701526849.876,19.609,19.609,-19.609,0.0038,0.0013000000000000002,0.0054,0.015,-0.054,-0.106
1701526849.916,19.609,19.609,-19.609,-0.0013000000000000002,0.0013000000000000002,-0.028800000000000003,-0.001,-0.051000000000000004,-0.101
1701526849.956,19.609,19.609,-19.609,0.0001,0.0007,0.0061,-0.001,-0.045,-0.108
1701526849.996,19.609,19.609,-19.609,0.0014,-0.001,-0.0018000000000000002,0.0,-0.032,-0.114
1701526850.036,19.609,19.609,-19.609,0.0001,0.0005,0.0187,-0.007,-0.039,-0.105
1701526850.076,19.609,19.609,-19.609,0.00030000000000000003,-0.0012000000000000001,-0.0098,-0.008,-0.034,-0.109
1701526850.116,19.609,19.609,-19.609,-0.0013000000000000002,-0.0011,-0.009000000000000001,0.0,-0.042,-0.113
1701526850.156,19.609,19.609,-19.609,0.0004,0.0019,-0.0173,-0.009000000000000001,-0.04,-0.11
1701526850.196,19.609,19.609,-19.609,-0.002,0.00030000000000000003,0.0194,-0.011,-0.038,-0.112
1701526850.236,19.609,19.609,-19.609,0.0012000000000000001,-0.0004,-0.015000000000000001,-0.016,-0.037,-0.112
1701526850.276,19.609,19.609,-19.609,0.0023,0.0009000000000000001,-0.013800000000000002,-0.009000000000000001,-0.045,-0.114
1701526850.316,19.609,19.609,-19.609,-0.0004,-0.0001,-0.0002,-0.001,-0.052000000000000005,-0.108
1701526850.356,19.609,19.609,-19.609,-0.0012000000000000001,0.001,0.0102,0.009000000000000001,-0.043000000000000003,-0.11
1701526850.396,19.609,19.609,-19.609,-0.0021000000000000003,0.0009000000000000001,-0.0044,0.003,-0.046,-0.105
1701526850.436,19.609,19.609,-19.609,0.0018000000000000002,-0.0015,-0.0073,0.006,-0.037,-0.109
1701526850.476,19.609,19.609,-19.609,0.0019,-0.0012000000000000001,-0.0032,-0.002,-0.037,-0.11
1701526850.516,19.609,19.609,-19.609,0.0023,-0.0004,-0.0095,0.0,-0.044,-0.108
1701526850.556,19.609,19.609,-19.609,-0.0004,-0.0012000000000000001,0.0057,-0.008,-0.043000000000000003,-0.107
1701526850.596,19.609,19.609,-19.609,0.0006000000000000001,0.0004,-0.0027,-0.011,-0.037,-0.101
1701526850.636,19.609,19.609,-19.609,-0.0031000000000000003,-0.0012000000000000001,-0.004200000000000001,0.009000000000000001,-0.038,-0.107
1701526850.676,19.609,19.609,-19.609,0.00030000000000000003,-0.0023,0.007200000000000001,0.007,-0.042,-0.114
1701526850.716,19.609,19.609,-19.609,0.0,-0.0006000000000000001,-0.0126,-0.005,-0.028,-0.111
1701526850.756,19.609,19.609,-19.609,-0.0012000000000000001,-0.0007,-0.0106,-0.03,-0.029,-0.099
1701526850.796,19.609,19.609,-19.609,0.0034000000000000002,0.0021000000000000003,-0.0111,-0.01,-0.043000000000000003,-0.111
1701526850.836,19.609,19.609,-19.609,0.0011,-0.0002,-0.0051,0.011,-0.054,-0.11800000000000001
1701526850.876,19.609,19.609,-19.609,-0.0007,0.00030000000000000003,-0.0115,0.012,-0.066,-0.124
1701526850.916,19.609,19.609,-19.609,-0.0019,0.0008,0.0103,0.008,-0.054,-0.11
1701526850.9559999,19.609,19.609,-19.609,-0.0009000000000000001,-0.0004,-0.0056,0.02,-0.066,-0.115
1701526850.996,19.609,19.609,-19.609,0.0018000000000000002,0.0006000000000000001,-0.0086,0.011,-0.07,-0.113
1701526851.036,19.609,19.609,-19.609,0.0002,0.001,0.0009000000000000001,-0.02,-0.08700000000000001,-0.107
1701526851.076,19.609,19.609,-19.609,0.0011,0.00030000000000000003,-0.0022,-0.06,-0.074,-0.096
1701526851.116,19.609,19.609,-19.609,-0.0008,0.0002,0.0028,-0.078,-0.046,-0.111
1701526851.156,19.609,19.609,-19.609,0.0,-0.0009000000000000001,-0.009000000000000001,-0.115,0.039,-0.151
1701526851.1959999,19.609,19.609,-19.609,-0.0008,-0.0012000000000000001,0.0016,-0.112,0.088,-0.171
1701526851.236,19.609,19.609,-19.609,0.0,0.0011,-0.0032,-0.09,0.138,-0.198
1701526851.276,19.609,19.609,-19.609,-0.0015,0.0004,-0.0109,-0.038,0.094,-0.241
1701526851.316,19.609,19.609,-19.609,-0.0032,-0.002,-0.0009000000000000001,0.057,-0.054,-0.307
1701526851.356,19.609,19.609,-19.609,-0.0007,0.0009000000000000001,-0.0028,0.036000000000000004,-0.111,-0.357
1701526851.396,19.609,19.609,-19.609,0.0015,0.001,-0.0037,-0.14100000000000001,-0.044,-0.342
1701526851.4359999,19.609,19.609,-19.609,0.0014,-0.0006000000000000001,-0.0198,-0.127,-0.049,-0.326
1701526851.476,19.609,19.609,-19.609,0.0014,-0.0001,0.0115,-0.075,-0.124,-0.307
1701526851.516,19.609,19.609,-19.609,0.00030000000000000003,-0.0016,0.0083,0.002,-0.203,-0.272
1701526851.556,19.609,19.609,-19.609,-0.0023,-0.0008,0.0053,0.057,-0.209,-0.23600000000000002
1701526851.596,19.609,19.609,-19.609,0.0015,-0.0013000000000000002,-0.0017000000000000001,0.052000000000000005,-0.177,-0.21
1701526851.636,19.609,19.609,-19.609,-0.0012000000000000001,0.001,-0.0016,0.063,-0.145,-0.17300000000000001
1701526851.6759999,19.609,19.609,-19.609,-0.00030000000000000003,-0.0007,0.002,0.055,-0.13,-0.164
1701526851.716,19.609,19.609,-19.609,0.0001,-0.0013000000000000002,-0.0129,-0.018000000000000002,-0.01,-0.137
1701526851.756,19.609,19.609,-19.609,0.0007,0.0009000000000000001,-0.0099,-0.024,0.107,-0.126
1701526851.796,19.609,19.609,-19.609,-0.00030000000000000003,-0.0009000000000000001,0.0117,0.049,0.153,-0.163
1701526851.836,19.609,19.609,-19.609,0.0006000000000000001,0.0004,-0.0098,0.062,0.096,-0.127
1701526851.876,19.609,19.609,-19.609,0.0001,-0.0025,-0.007,0.079,-0.003,-0.07100000000000001
1701526851.916,19.609,19.609,-19.609,-0.0001,0.0,-0.0114,0.006,-0.029,-0.045
1701526851.956,19.609,19.609,-19.609,-0.0009000000000000001,-0.0006000000000000001,0.0143,-0.07200000000000001,-0.003,-0.007
1701526851.996,19.609,19.609,-19.609,-0.001,-0.0008,0.0031000000000000003,-0.047,-0.015,-0.032
1701526852.036,19.609,19.609,-19.609,-0.00030000000000000003,-0.0015,0.0125,0.004,-0.035,-0.069
1701526852.076,19.609,19.609,-19.609,-0.0017000000000000001,0.0,-0.009000000000000001,0.032,-0.034,-0.065
1701526852.116,19.609,19.609,-19.609,-0.0006000000000000001,0.0009000000000000001,-0.0041,0.064,-0.021,-0.052000000000000005
1701526852.156,19.609,19.609,-19.609,-0.00030000000000000003,0.0009000000000000001,-0.0102,0.07,0.0,-0.055
1701526852.196,19.609,19.609,-19.609,0.0006000000000000001,0.0002,0.0005,0.09,0.003,-0.06
1701526852.236,19.609,19.609,-19.609,0.0009000000000000001,-0.0009000000000000001,-0.0034000000000000002,0.116,-0.015,-0.064
1701526852.276,19.609,19.609,-19.609,0.0007,-0.001,0.0012000000000000001,0.126,-0.037,-0.055
1701526852.316,19.609,19.609,-19.609,0.0017000000000000001,-0.0007,-0.0035,0.111,-0.055,-0.026000000000000002
1701526852.356,19.609,19.609,-19.609,0.0001,0.0004,0.002,0.08,-0.057,0.0
1701526852.396,19.609,19.609,-19.609,0.00030000000000000003,-0.0001,-0.006200000000000001,0.058,-0.084,0.04
1701526852.436,19.609,19.609,-19.609,0.0006000000000000001,0.0006000000000000001,-0.0145,0.075,-0.094,0.052000000000000005
1701526852.476,19.609,19.609,-19.609,0.0018000000000000002,0.0,-0.0025,0.057,-0.096,0.046
1701526852.516,19.609,19.609,-19.609,0.0001,-0.0004,-0.006200000000000001,0.058,-0.097,0.023
1701526852.556,19.609,19.609,-19.609,0.0026000000000000003,-0.0005,0.0001,0.08,-0.092,-0.014
1701526852.596,19.609,19.609,-19.609,-0.001,0.0,0.0033,0.117,-0.10200000000000001,-0.033
1701526852.636,19.609,19.609,-19.609,0.0014,-0.0004,0.0058000000000000005,0.117,-0.10200000000000001,-0.054
1701526852.676,19.609,19.609,-19.609,-0.0012000000000000001,0.0002,-0.0048000000000000004,0.107,-0.108,-0.064
1701526852.716,19.609,19.609,-19.609,0.0006000000000000001,0.0007,0.0025,0.08,-0.089,-0.097
1701526852.756,19.609,19.609,-19.609,0.001,0.0,0.004200000000000001,0.049,-0.085,-0.11900000000000001
1701526852.796,19.609,19.609,-19.609,-0.0015,0.0023,-0.0068000000000000005,-0.006,-0.059000000000000004,-0.115
1701526852.836,19.609,19.609,-19.609,0.0004,-0.0001,0.0036000000000000003,-0.014,-0.054,-0.117
1701526852.876,19.609,19.609,-19.609,0.0012000000000000001,0.0022,0.0037,-0.021,-0.026000000000000002,-0.135
1701526852.916,19.609,19.609,-19.609,0.0006000000000000001,-0.0012000000000000001,-0.0099,-0.023,-0.015,-0.151
1701526852.9559999,19.609,19.609,-19.609,0.0009000000000000001,0.0012000000000000001,-0.008700000000000001,-0.032,0.006,-0.151
1701526852.996,19.609,19.609,-19.609,0.001,0.0019,0.018000000000000002,-0.059000000000000004,0.012,-0.153
1701526853.036,19.609,19.609,-19.609,0.0008,-0.0012000000000000001,-0.011600000000000001,-0.066,0.004,-0.132
1701526853.076,19.609,19.609,-19.609,0.0001,-0.0009000000000000001,-0.0034000000000000002,-0.083,0.0,-0.121
1701526853.116,19.609,19.609,-19.609,-0.0014,0.0012000000000000001,-0.0007,-0.065,-0.009000000000000001,-0.11800000000000001
1701526853.156,19.609,19.609,-19.609,-0.0001,0.0009000000000000001,0.00030000000000000003,-0.035,-0.023,-0.124
1701526853.1959999,19.609,19.609,-19.609,-0.0017000000000000001,0.0008,-0.0061,0.019,-0.02,-0.126
1701526853.236,19.609,19.609,-19.609,0.0012000000000000001,0.00030000000000000003,-0.010400000000000001,-0.01,-0.029,-0.115
1701526853.276,19.609,19.609,-19.609,-0.0012000000000000001,0.001,-0.0001,-0.019,-0.031,-0.1
1701526853.316,19.609,19.609,-19.609,-0.0014,-0.0002,-0.0167,-0.006,-0.032,-0.116
1701526853.356,19.609,19.609,-19.609,-0.0021000000000000003,0.0014,0.010100000000000001,-0.022,-0.046,-0.116
1701526853.396,19.609,19.609,-19.609,0.0011,-0.0001,-0.0023,-0.01,-0.047,-0.112
1701526853.4359999,19.609,19.609,-19.609,0.0,-0.0008,0.0051,-0.009000000000000001,-0.054,-0.10200000000000001
1701526853.476,19.609,19.609,-19.609,-0.0004,-0.00030000000000000003,-0.006,-0.004,-0.07100000000000001,-0.113
1701526853.516,19.609,19.609,-19.609,0.00030000000000000003,-0.0011,-0.0041,0.014,-0.065,-0.117
1701526853.556,19.609,19.609,-19.609,0.0006000000000000001,-0.0015,-0.028300000000000002,0.013000000000000001,-0.067,-0.113
1701526853.596,19.609,19.609,-19.609,0.0056,0.0007,0.0159,0.022,-0.062,-0.10200000000000001
1701526853.636,19.609,19.609,-19.609,-0.0001,0.0014,-0.0016,0.021,-0.089,-0.1
1701526853.6759999,19.609,19.609,-19.609,-0.0007,-0.00030000000000000003,0.0006000000000000001,0.03,-0.024,-0.091
1701526853.716,19.609,19.609,-19.609,0.001,0.0004,-0.0047,0.028,0.002,-0.106
1701526853.756,19.609,19.609,-19.609,-0.0008,0.0009000000000000001,-0.0166,0.005,-0.021,-0.101
1701526853.796,19.609,19.609,-19.609,0.0,0.0005,-0.0031000000000000003,0.001,-0.057,-0.092
1701526853.836,19.609,19.609,-19.609,0.0004,-0.0007,-0.0039000000000000003,-0.004,-0.038,-0.09
1701526853.876,19.609,19.609,-19.609,-0.0004,0.0009000000000000001,-0.007,0.007,-0.036000000000000004,-0.109
1701526853.916,19.609,19.609,-19.609,0.0,-0.0001,0.0029000000000000002,0.011,-0.047,-0.112
1701526853.956,19.609,19.609,-19.609,0.0012000000000000001,-0.0001,-0.010100000000000001,0.011,-0.061,-0.108
1701526853.996,19.609,19.609,-19.609,0.0,0.0018000000000000002,0.019700000000000002,0.004,-0.052000000000000005,-0.115
1701526854.036,19.609,19.609,-19.609,0.0012000000000000001,-0.00030000000000000003,-0.0033,-0.009000000000000001,-0.034,-0.126
1701526854.076,19.609,19.609,-19.609,0.0,0.0011,-0.0023,-0.014,-0.029,-0.122
1701526854.116,19.609,19.609,-19.609,0.0006000000000000001,0.0006000000000000001,-0.0032,-0.035,-0.027,-0.117
1701526854.156,19.609,19.609,-19.609,0.0017000000000000001,0.0021000000000000003,-0.0122,-0.03,-0.031,-0.123
1701526854.196,19.609,19.609,-19.609,0.0011,-0.0004,0.0081,-0.02,-0.036000000000000004,-0.122
1701526854.236,19.609,19.609,-19.609,0.0015,-0.0006000000000000001,-0.0109,-0.023,-0.044,-0.128
1701526854.276,19.609,19.609,-19.609,-0.0019,-0.00030000000000000003,-0.0068000000000000005,-0.023,-0.046,-0.132
1701526854.316,19.609,19.609,-19.609,0.0004,0.0002,-0.0012000000000000001,-0.024,-0.043000000000000003,-0.122
1701526854.356,19.609,19.609,-19.609,0.0002,-0.0005,-0.0068000000000000005,-0.027,-0.045,-0.11800000000000001
1701526854.396,19.609,19.609,-19.609,0.0017000000000000001,0.002,-0.0037,-0.024,-0.043000000000000003,-0.114
1701526854.436,19.609,19.609,-19.609,0.0034000000000000002,-0.0004,-0.024300000000000002,-0.034,-0.038,-0.125
1701526854.476,19.609,19.609,-19.609,-0.002,0.001,-0.019700000000000002,-0.039,-0.045,-0.135
1701526854.516,19.609,19.609,-19.609,0.0,0.0002,0.0089,-0.038,-0.07100000000000001,-0.147
1701526854.556,19.609,19.609,-19.609,0.0,0.0004,0.0017000000000000001,-0.03,-0.07200000000000001,-0.125
1701526854.596,19.609,19.609,-19.609,0.0007,-0.0012000000000000001,0.0026000000000000003,-0.034,-0.091,-0.113
1701526854.636,19.609,19.609,-19.609,0.0,0.001,-0.0004,-0.005,-0.107,-0.108
1701526854.676,19.609,19.609,-19.609,0.00030000000000000003,0.0004,-0.013600000000000001,0.022,-0.10300000000000001,-0.085
1701526854.716,19.609,19.609,-19.609,0.0009000000000000001,-0.0005,0.005,0.037,-0.08,-0.091
1701526854.756,19.609,19.609,-19.609,0.0009000000000000001,0.001,-0.0053,0.031,-0.035,-0.091
1701526854.796,19.609,19.609,-19.609,0.0012000000000000001,0.0007,-0.004,0.006,-0.009000000000000001,-0.101
1701526854.836,19.609,19.609,-19.609,0.0024000000000000002,-0.0016,-0.0253,-0.004,0.0,-0.105
1701526854.876,19.609,19.609,-19.609,-0.00030000000000000003,0.0005,0.011000000000000001,-0.008,-0.003,-0.106
1701526854.916,19.609,19.609,-19.609,0.003,0.0001,-0.0036000000000000003,-0.005,-0.006,-0.115
1701526854.9559999,19.609,19.609,-19.609,0.0007,-0.0014,0.00030000000000000003,-0.005,-0.013000000000000001,-0.116
1701526854.996,19.609,19.609,-19.609,0.0006000000000000001,0.0022,-0.004,-0.001,-0.028,-0.11800000000000001
1701526855.036,19.609,19.609,-19.609,0.0022,-0.0006000000000000001,0.0009000000000000001,-0.02,-0.031,-0.113
1701526855.076,19.609,19.609,-19.609,0.0005,0.0009000000000000001,-0.0001,-0.029,0.005,-0.105
1701526855.116,19.609,19.609,-19.609,-0.0023,-0.0014,-0.0123,-0.015,-0.007,-0.10400000000000001
1701526855.156,19.609,19.609,-19.609,0.0006000000000000001,0.0,0.0025,-0.013000000000000001,-0.005,-0.10400000000000001
1701526855.1959999,19.609,19.609,-19.609,0.0002,0.0012000000000000001,-0.0009000000000000001,-0.007,-0.019,-0.105
1701526855.236,19.609,19.609,-19.609,0.0017000000000000001,0.001,0.002,-0.01,-0.027,-0.098
1701526855.276,19.609,19.609,-19.609,0.0001,0.0012000000000000001,0.0059,-0.018000000000000002,-0.021,-0.10300000000000001
1701526855.316,19.609,19.609,-19.609,0.00030000000000000003,-0.0001,-0.0026000000000000003,-0.049,-0.034,-0.114
1701526855.356,19.609,19.609,-19.609,-0.001,-0.0026000000000000003,-0.0064,-0.04,-0.028,-0.123
1701526855.396,19.609,19.609,-19.609,0.0002,0.0009000000000000001,-0.056100000000000004,-0.018000000000000002,-0.023,-0.126
1701526855.4359999,19.609,19.609,-19.609,0.0,0.0028,-0.010400000000000001,-0.019,-0.019,-0.13
1701526855.476,19.609,19.609,-19.609,-0.001,-0.0017000000000000001,-0.0148,-0.032,-0.016,-0.129
1701526855.516,19.609,19.609,-19.609,0.0005,-0.0015,0.030000000000000002,-0.014,-0.011,-0.125
1701526855.556,19.609,19.609,-19.609,0.0013000000000000002,0.0012000000000000001,-0.040400000000000005,-0.013000000000000001,0.0,-0.128
1701526855.596,19.609,19.609,-19.609,0.0001,-0.0012000000000000001,0.0742,-0.032,-0.006,-0.125
1701526855.636,19.609,19.609,-19.609,0.0012000000000000001,-0.0017000000000000001,0.0,-0.042,-0.016,-0.124
1701526855.6759999,19.609,19.609,-19.609,0.0028,0.0,-0.0043,-0.026000000000000002,-0.042,-0.115
1701526855.716,19.609,19.609,-19.609,-0.0007,-0.00030000000000000003,0.0154,-0.016,-0.049,-0.109
1701526855.756,19.609,19.609,-19.609,-0.0009000000000000001,-0.0012000000000000001,-0.0176,0.007,-0.057,-0.108
1701526855.796,19.609,19.609,-19.609,0.0,-0.0007,-0.0014,0.024,-0.056,-0.113
1701526855.836,19.609,19.609,-19.609,-0.0004,0.00030000000000000003,-0.0068000000000000005,0.019,-0.053,-0.109
1701526855.876,19.609,19.609,-19.609,0.0031000000000000003,0.0009000000000000001,-0.0038,-0.001,-0.046,-0.092
1701526855.916,19.609,19.609,-19.609,-0.0009000000000000001,0.0001,-0.0027,-0.001,-0.042,-0.106
1701526855.956,19.609,19.609,-19.609,-0.00030000000000000003,-0.0017000000000000001,-0.0015,0.013000000000000001,-0.04,-0.107
1701526855.996,19.609,19.609,-19.609,0.0012000000000000001,-0.0002,0.0053,0.014,-0.046,-0.11900000000000001
1701526856.036,19.609,19.609,-19.609,0.0012000000000000001,0.0007,-0.0205,0.0,-0.047,-0.10200000000000001
1701526856.076,19.609,19.609,-19.609,0.0,0.0009000000000000001,0.0102,-0.006,-0.032,-0.10200000000000001
1701526856.116,19.609,19.609,-19.609,0.0006000000000000001,0.0004,0.0006000000000000001,-0.009000000000000001,-0.02,-0.116
1701526856.156,19.609,19.609,-19.609,-0.0006000000000000001,-0.001,-0.0103,0.006,-0.026000000000000002,-0.11900000000000001
1701526856.196,19.609,19.609,-19.609,0.0,0.0012000000000000001,-0.0025,-0.005,-0.032,-0.108
1701526856.236,19.609,19.609,-19.609,0.0004,-0.0018000000000000002,0.0017000000000000001,0.003,-0.038,-0.11900000000000001
1701526856.276,19.609,19.609,-19.609,-0.00030000000000000003,-0.0002,-0.0012000000000000001,0.012,-0.036000000000000004,-0.12
1701526856.316,19.609,19.609,-19.609,-0.005,-0.0021000000000000003,0.0008,0.02,-0.044,-0.132
1701526856.356,19.609,19.609,-19.609,0.0027,-0.0008,-0.0244,0.01,-0.027,-0.125
1701526856.396,19.609,19.609,-19.609,-0.0005,0.0022,0.0194,0.004,-0.037,-0.12
1701526856.436,19.609,19.609,-19.609,-0.00030000000000000003,0.0004,-0.005,-0.004,-0.047,-0.11800000000000001
1701526856.476,19.609,19.609,-19.609,0.00030000000000000003,-0.0004,-0.0114,-0.016,-0.049,-0.109
1701526856.516,19.609,19.609,-19.609,0.0014,0.0001,-0.0068000000000000005,-0.005,-0.049,-0.108
1701526856.556,19.609,19.609,-19.609,0.0004,-0.0028,-0.006500000000000001,0.003,-0.05,-0.10400000000000001
1701526856.596,19.609,19.609,-19.609,-0.0009000000000000001,-0.002,-0.0119,0.01,-0.048,-0.10300000000000001
1701526856.636,19.609,19.609,-19.609,-0.0012000000000000001,0.0004,0.0034000000000000002,0.005,-0.04,-0.10200000000000001
1701526856.676,19.609,19.609,-19.609,0.0011,0.0,-0.0036000000000000003,-0.012,-0.034,-0.115
1701526856.716,19.609,19.609,-19.609,0.0015,-0.0002,0.0129,-0.032,-0.045,-0.114
1701526856.756,19.609,19.609,-19.609,0.0031000000000000003,-0.0018000000000000002,-0.010100000000000001,-0.035,-0.05,-0.105
1701526856.796,19.609,19.609,-19.609,-0.0011,0.0006000000000000001,-0.008400000000000001,-0.007,-0.067,-0.10200000000000001
1701526856.836,19.609,19.609,-19.609,0.0,0.0016,-0.0061,0.026000000000000002,-0.073,-0.107
1701526856.876,19.609,19.609,-19.609,0.0015,-0.0027,0.001,0.003,-0.07,-0.108
1701526856.916,19.609,19.609,-19.609,-0.0006000000000000001,0.0004,-0.0046,0.027,-0.07200000000000001,-0.10400000000000001
1701526856.9559999,19.609,19.609,-19.609,-0.0002,-0.0017000000000000001,0.0067,0.007,-0.058,-0.112
1701526856.996,19.609,19.609,-19.609,-0.001,0.0004,-0.0074,-0.015,-0.041,-0.108
1701526857.036,19.609,19.609,-19.609,-0.0006000000000000001,0.0009000000000000001,-0.0037,-0.022,-0.033,-0.10200000000000001
1701526857.076,19.609,19.609,-19.609,0.0006000000000000001,0.0,-0.0023,-0.03,-0.051000000000000004,-0.097
1701526857.116,19.609,19.609,-19.609,0.0014,-0.001,-0.019,0.032,-0.04,-0.105
1701526857.156,19.609,19.609,-19.609,-0.0021000000000000003,0.00030000000000000003,-0.0006000000000000001,0.014,-0.041,-0.11900000000000001
1701526857.1959999,19.609,19.609,-19.609,-0.0029000000000000002,0.0014,-0.023100000000000002,-0.009000000000000001,-0.022,-0.112
1701526857.236,19.609,19.609,-19.609,-0.0008,-0.0009000000000000001,0.0371,-0.002,-0.017,-0.099
1701526857.276,19.609,19.609,-19.609,-0.00030000000000000003,0.0007,-0.0119,-0.019,-0.008,-0.101
1701526857.316,19.609,19.609,-19.609,0.0001,-0.0015,-0.0094,-0.014,-0.02,-0.114
1701526857.356,19.609,19.609,-19.609,0.0009000000000000001,-0.0009000000000000001,0.0004,-0.001,-0.026000000000000002,-0.109
1701526857.396,19.609,19.609,-19.609,0.0006000000000000001,-0.0006000000000000001,-0.008400000000000001,-0.006,-0.041,-0.10300000000000001
1701526857.4359999,19.609,19.609,-19.609,-0.001,0.0015,-0.007200000000000001,0.015,-0.062,-0.108
1701526857.476,19.609,19.609,-19.609,-0.0004,0.0001,0.0044,0.005,-0.065,-0.109
1701526857.516,19.609,19.609,-19.609,-0.0007,0.001,-0.012,0.009000000000000001,-0.067,-0.113
1701526857.556,19.609,19.609,-19.609,0.0013000000000000002,0.0,0.015600000000000001,-0.009000000000000001,-0.065,-0.107
1701526857.596,19.609,19.609,-19.609,0.0016,0.0006000000000000001,-0.006200000000000001,-0.005,-0.067,-0.107
1701526857.636,19.609,19.609,-19.609,0.0001,-0.0007,-0.0146,-0.003,-0.062,-0.101
1701526857.6759999,19.609,19.609,-19.609,0.0011,0.0005,0.0056,0.006,-0.058,-0.111
1701526857.716,19.609,19.609,-19.609,0.0006000000000000001,0.0001,-0.006200000000000001,0.003,-0.052000000000000005,-0.112
1701526857.756,19.609,19.609,-19.609,0.0,0.0005,-0.0039000000000000003,-0.003,-0.051000000000000004,-0.111
1701526857.796,19.609,19.609,-19.609,-0.0004,0.0021000000000000003,0.0006000000000000001,-0.007,-0.05,-0.112
1701526857.836,19.609,19.609,-19.609,0.0015,-0.0015,-0.0054,-0.005,-0.047,-0.113
1701526857.876,19.609,19.609,-19.609,0.001,-0.001,-0.0227,-0.001,-0.028,-0.11
1701526857.916,19.609,19.609,-19.609,0.0001,-0.0015,-0.0048000000000000004,-0.009000000000000001,-0.023,-0.108
1701526857.956,19.609,19.609,-19.609,0.001,0.0007,0.0013000000000000002,-0.014,-0.021,-0.11800000000000001
1701526857.996,19.609,19.609,-19.609,0.0,0.0013000000000000002,0.004200000000000001,-0.021,-0.029,-0.113
1701526858.036,19.609,19.609,-19.609,-0.0016,-0.0018000000000000002,0.0039000000000000003,-0.021,-0.03,-0.105
1701526858.076,19.609,19.609,-19.609,0.0011,0.0019,-0.0064,-0.005,-0.041,-0.105
1701526858.116,19.609,19.609,-19.609,-0.0006000000000000001,0.0001,-0.0014,0.011,-0.052000000000000005,-0.11800000000000001
1701526858.156,19.609,19.609,-19.609,0.0001,0.0002,0.0162,0.005,-0.045,-0.111
1701526858.196,19.609,19.609,-19.609,-0.0004,-0.0019,-0.0129,0.003,-0.049,-0.105
1701526858.236,19.609,19.609,-19.609,-0.0013000000000000002,0.0,-0.00030000000000000003,-0.002,-0.043000000000000003,-0.109
1701526858.276,19.609,19.609,-19.609,0.0007,0.0002,-0.0025,-0.011,-0.029,-0.114
1701526858.316,19.609,19.609,-19.609,0.0017000000000000001,0.0009000000000000001,-0.0029000000000000002,-0.009000000000000001,-0.031,-0.109
1701526858.356,19.609,19.609,-19.609,-0.006200000000000001,-0.0025,0.0015,-0.003,-0.036000000000000004,-0.113
1701526858.396,19.609,19.609,-19.609,-0.0009000000000000001,0.0007,0.003,0.002,-0.031,-0.11800000000000001
1701526858.436,19.609,19.609,-19.609,-0.0009000000000000001,0.0006000000000000001,-0.0014,0.005,-0.042,-0.113
1701526858.476,19.609,19.609,-19.609,0.0014,0.00030000000000000003,-0.0089,-0.007,-0.041,-0.107
1701526858.516,19.609,19.609,-19.609,0.0006000000000000001,0.0017000000000000001,-0.006200000000000001,-0.019,-0.039,-0.108
1701526858.556,19.609,19.609,-19.609,0.0021000000000000003,-0.0015,-0.0053,-0.004,-0.043000000000000003,-0.114
1701526858.596,19.609,19.609,-19.609,-0.0016,-0.0016,-0.001,-0.002,-0.043000000000000003,-0.116
1701526858.636,19.609,19.609,-19.609,-0.0009000000000000001,-0.0004,-0.0079,-0.003,-0.045,-0.109
1701526858.676,19.609,19.609,-19.609,0.0006000000000000001,0.0026000000000000003,0.0004,0.0,-0.051000000000000004,-0.117
1701526858.716,19.609,19.609,-19.609,0.0004,-0.0009000000000000001,-0.0038,0.001,-0.043000000000000003,-0.113
1701526858.756,19.609,19.609,-19.609,0.0017000000000000001,-0.0004,0.0039000000000000003,-0.001,-0.014,-0.114
1701526858.796,19.609,19.609,-19.609,-0.0011,-0.0007,0.0048000000000000004,-0.006,-0.041,-0.114
1701526858.836,19.609,19.609,-19.609,-0.0006000000000000001,0.0015,0.0051,-0.01,-0.036000000000000004,-0.113
1701526858.876,19.609,19.609,-19.609,-0.0012000000000000001,-0.0014,-0.0098,-0.015,-0.039,-0.107
1701526858.916,19.609,19.609,-19.609,0.0019,0.0011,-0.0167,-0.011,-0.026000000000000002,-0.10400000000000001
1701526858.9559999,19.609,19.609,-19.609,-0.0007,-0.00030000000000000003,0.0073,0.005,-0.038,-0.11
1701526858.996,19.609,19.609,-19.609,0.0,0.0008,-0.0021000000000000003,0.006,-0.038,-0.113
1701526859.036,19.609,19.609,-19.609,-0.0008,-0.0005,-0.0086,-0.025,-0.032,-0.112
1701526859.076,19.609,19.609,-19.609,0.0017000000000000001,-0.0019,-0.006200000000000001,-0.029,-0.033,-0.097
1701526859.116,19.609,19.609,-19.609,0.0006000000000000001,0.00030000000000000003,-0.0004,0.0,-0.049,-0.113
1701526859.156,19.609,19.609,-19.609,-0.00030000000000000003,0.0004,-0.0051,0.007,-0.047,-0.121
1701526859.1959999,19.609,19.609,-19.609,-0.0001,-0.0023,-0.0017000000000000001,0.0,-0.057,-0.115
1701526859.236,19.609,19.609,-19.609,-0.0012000000000000001,-0.0006000000000000001,0.001,-0.007,-0.06,-0.10300000000000001
1701526859.276,19.609,19.609,-19.609,-0.0021000000000000003,-0.0005,-0.0067,-0.004,-0.052000000000000005,-0.112
1701526859.316,19.609,19.609,-19.609,0.0004,-0.0018000000000000002,-0.004,-0.004,-0.04,-0.124
1701526859.356,19.609,19.609,-19.609,-0.0007,-0.0012000000000000001,-0.0063,-0.003,-0.033,-0.112
1701526859.396,19.609,19.609,-19.609,0.0002,0.002,-0.0017000000000000001,-0.015,-0.035,-0.099
1701526859.4359999,19.609,19.609,-19.609,-0.0014,-0.0008,-0.0018000000000000002,0.007,-0.04,-0.113
1701526859.476,19.609,19.609,-19.609,-0.00030000000000000003,-0.0005,-0.006900000000000001,0.011,-0.045,-0.117
1701526859.516,19.609,19.609,-19.609,0.0001,0.0014,-0.0077,-0.008,-0.041,-0.109
1701526859.556,19.609,19.609,-19.609,0.0012000000000000001,-0.00030000000000000003,-0.0126,-0.016,-0.042,-0.107
1701526859.596,19.609,19.609,-19.609,0.0013000000000000002,-0.001,0.0134,-0.011,-0.051000000000000004,-0.111
1701526859.636,19.609,19.609,-19.609,-0.0016,-0.0004,-0.006500000000000001,-0.009000000000000001,-0.058,-0.108
1701526859.6759999,19.609,19.609,-19.609,-0.0006000000000000001,0.0007,-0.00030000000000000003,-0.002,-0.057,-0.109
1701526859.716,19.609,19.609,-19.609,-0.0004,0.00030000000000000003,-0.0015,0.006,-0.063,-0.108
1701526859.756,19.609,19.609,-19.609,0.0021000000000000003,0.00030000000000000003,-0.0053,0.002,-0.053,-0.105
1701526859.796,19.609,19.609,-19.609,0.0005,0.0007,-0.0258,0.0,-0.046,-0.105
1701526859.836,19.609,19.609,-19.609,-0.0014,-0.0021000000000000003,0.027100000000000003,0.001,-0.043000000000000003,-0.107
1701526859.876,19.609,19.609,-19.609,0.0039000000000000003,-0.00030000000000000003,-0.002,0.0,-0.044,-0.114
1701526859.916,19.609,19.609,-19.609,0.0015,0.0006000000000000001,0.0083,-0.005,-0.043000000000000003,-0.11
1701526859.956,19.609,19.609,-19.609,-0.0021000000000000003,-0.0013000000000000002,-0.0073,-0.004,-0.05,-0.105
1701526859.996,19.609,19.609,-19.609,0.0014,-0.0007,-0.030000000000000002,0.005,-0.043000000000000003,-0.1
1701526860.036,19.609,19.609,-19.609,-0.0013000000000000002,-0.0006000000000000001,-0.016300000000000002,0.0,-0.032,-0.10400000000000001
1701526860.076,19.609,19.609,-19.609,0.0012000000000000001,-0.0014,0.0026000000000000003,-0.001,-0.037,-0.115
1701526860.116,19.609,19.609,-19.609,0.0001,0.0008,-0.0008,-0.011,-0.041,-0.113
1701526860.156,19.609,19.609,-19.609,0.0012000000000000001,-0.0001,-0.0106,-0.029,-0.04,-0.10200000000000001
1701526860.196,19.609,19.609,-19.609,0.0028,0.002,-0.0114,-0.019,-0.035,-0.105
1701526860.236,19.609,19.609,-19.609,0.00030000000000000003,0.001,0.0114,0.0,-0.058,-0.12
1701526860.276,19.609,19.609,-19.609,0.0017000000000000001,0.0005,-0.002,0.003,-0.056,-0.106
1701526860.316,19.609,19.609,-19.609,0.0019,-0.0022,0.0039000000000000003,0.001,-0.058,-0.10200000000000001
1701526860.356,19.609,19.609,-19.609,0.002,0.0001,-0.0049,0.0,-0.047,-0.106
1701526860.396,19.609,19.609,-19.609,0.0004,0.0004,-0.0074,-0.003,-0.04,-0.117
1701526860.436,19.609,19.609,-19.609,0.0006000000000000001,0.00030000000000000003,-0.0073,-0.01,-0.039,-0.105
1701526860.476,19.609,19.609,-19.609,0.0006000000000000001,0.0009000000000000001,-0.006,-0.007,-0.045,-0.107
1701526860.516,19.609,19.609,-19.609,-0.0004,-0.0001,-0.0079,-0.033,-0.038,-0.109
1701526860.556,19.609,19.609,-19.609,0.0039000000000000003,-0.0001,0.0076,-0.005,-0.05,-0.105
1701526860.596,19.609,19.609,-19.609,0.0025,0.0006000000000000001,-0.0073,-0.012,-0.05,-0.117
1701526860.636,19.609,19.609,-19.609,0.0009000000000000001,-0.0017000000000000001,0.0004,-0.009000000000000001,-0.038,-0.11900000000000001
1701526860.676,19.609,19.609,-19.609,0.0006000000000000001,0.00030000000000000003,-0.0001,-0.009000000000000001,-0.035,-0.11
1701526860.716,19.609,19.609,-19.609,0.0007,0.0012000000000000001,-0.0004,-0.013000000000000001,-0.032,-0.109
1701526860.756,19.609,19.609,-19.609,0.0001,-0.0001,-0.0022,-0.003,-0.036000000000000004,-0.106
1701526860.796,19.609,19.609,-19.609,0.0005,-0.0015,-0.0086,0.0,-0.037,-0.11
1701526860.836,19.609,19.609,-19.609,0.0023,0.0005,0.001,-0.007,-0.04,-0.108
1701526860.876,19.609,19.609,-19.609,0.0001,0.0008,-0.0017000000000000001,-0.006,-0.034,-0.111
1701526860.916,19.609,19.609,-19.609,-0.00030000000000000003,-0.001,-0.0051,-0.021,-0.04,-0.113
1701526860.9559999,19.609,19.609,-19.609,0.0044,0.0004,-0.0146,-0.002,-0.045,-0.106
1701526860.996,19.609,19.609,-19.609,0.0027,-0.0019,-0.0043,0.0,-0.036000000000000004,-0.112
1701526861.036,19.609,19.609,-19.609,0.0001,0.001,-0.0007,0.021,-0.034,-0.106
1701526861.076,19.609,19.609,-19.609,0.0013000000000000002,-0.001,0.0019,-0.007,-0.031,-0.114
1701526861.116,19.609,19.609,-19.609,0.0037,-0.00030000000000000003,-0.0043,-0.012,-0.04,-0.11
1701526861.156,19.609,19.609,-19.609,-0.0014,0.0005,-0.0061,-0.026000000000000002,-0.04,-0.098
1701526861.1959999,19.609,19.609,-19.609,0.0015,-0.0039000000000000003,-0.007500000000000001,-0.009000000000000001,-0.039,-0.098
1701526861.236,19.609,19.609,-19.609,-0.0011,0.0012000000000000001,-0.0108,0.016,-0.052000000000000005,-0.114
1701526861.276,19.609,19.609,-19.609,0.0015,-0.0022,0.011300000000000001,0.016,-0.055,-0.116
1701526861.316,19.609,19.609,-19.609,0.0019,-0.0014,-0.0103,0.002,-0.058,-0.101
1701526861.356,19.609,19.609,-19.609,-0.002,-0.0032,0.015000000000000001,-0.006,-0.052000000000000005,-0.096
1701526861.396,19.609,19.609,-19.609,0.0015,0.0005,-0.0125,-0.007,-0.042,-0.113
1701526861.4359999,19.609,19.609,-19.609,0.00030000000000000003,-0.0043,-0.0048000000000000004,-0.003,-0.038,-0.12
1701526861.476,19.609,19.609,-19.609,-0.0004,-0.0029000000000000002,-0.01,-0.01,-0.043000000000000003,-0.107
1701526861.516,19.609,19.609,-19.609,0.0007,0.0004,-0.0007,-0.005,-0.039,-0.109
1701526861.556,19.609,19.609,-19.609,0.0011,0.00030000000000000003,-0.0045000000000000005,0.003,-0.043000000000000003,-0.121
1701526861.596,19.609,19.609,-19.609,0.0004,0.0011,-0.0002,-0.006,-0.044,-0.114
1701526861.636,19.609,19.609,-19.609,0.0001,0.0002,-0.0015,-0.013000000000000001,-0.044,-0.108
1701526861.6759999,19.609,19.609,-19.609,-0.00030000000000000003,0.001,-0.0005,-0.009000000000000001,-0.046,-0.108
1701526861.716,19.609,19.609,-19.609,0.0024000000000000002,-0.0004,0.0021000000000000003,0.005,-0.048,-0.113
1701526861.756,19.609,19.609,-19.609,0.0038,-0.0001,-0.010100000000000001,0.005,-0.054,-0.114
1701526861.796,19.609,19.609,-19.609,-0.0005,0.0002,0.0108,-0.009000000000000001,-0.054,-0.109
1701526861.836,19.609,19.609,-19.609,0.0048000000000000004,-0.0011,-0.0175,-0.006,-0.047,-0.10300000000000001
1701526861.876,19.609,19.609,-19.609,0.0004,0.0025,0.0039000000000000003,0.0,-0.042,-0.112
1701526861.916,19.609,19.609,-19.609,0.0018000000000000002,-0.00030000000000000003,-0.0083,0.0,-0.036000000000000004,-0.112
