timestamp,acc_x,acc_y,acc_z,magn_x,magn_y,magn_z,gyro_x,gyro_y,gyro_z
1701528846.845,19.609,19.609,-19.609,-0.0017000000000000001,0.0027,-0.0071,0.109,-0.8220000000000001,-0.215
1701528846.885,19.609,19.609,-19.609,-0.0014,0.0004,-0.0123,0.006,-0.112,-0.117
1701528846.925,19.609,19.609,-19.609,-0.0007,0.0,0.0151,0.01,-0.109,-0.115
1701528846.965,19.609,19.609,-19.609,-0.0004,0.0015,-0.0045000000000000005,0.015,-0.10300000000000001,-0.116
1701528847.005,19.609,19.609,-19.609,-0.0025,0.0017000000000000001,-0.0054,0.012,-0.1,-0.125
1701528847.045,19.609,19.609,-19.609,-0.0032,0.0023,0.0126,0.012,-0.08600000000000001,-0.11
1701528847.085,19.609,19.609,-19.609,0.0006000000000000001,0.0016,0.0063,0.005,-0.069,-0.11
1701528847.125,19.609,19.609,-19.609,-0.002,0.0005,0.0058000000000000005,0.0,-0.051000000000000004,-0.10300000000000001
1701528847.165,19.609,19.609,-19.609,0.00030000000000000003,0.0022,0.0031000000000000003,0.002,-0.05,-0.093
1701528847.205,19.609,19.609,-19.609,0.00030000000000000003,0.0004,0.0089,0.0,-0.04,-0.091
1701528847.245,19.609,19.609,-19.609,-0.0004,0.0006000000000000001,0.008400000000000001,-0.011,-0.034,-0.092
1701528847.2849998,19.609,19.609,-19.609,-0.0043,0.0021000000000000003,0.0023,-0.005,-0.033,-0.091
1701528847.325,19.609,19.609,-19.609,0.0,0.0027,0.0014,-0.005,-0.034,-0.10400000000000001
1701528847.365,19.609,19.609,-19.609,-0.0002,0.0037,0.0094,-0.005,-0.034,-0.096
1701528847.405,19.609,19.609,-19.609,-0.0016,0.001,0.0023,-0.009000000000000001,-0.031,-0.094
1701528847.445,19.609,19.609,-19.609,0.00030000000000000003,0.0023,0.0032,-0.001,-0.043000000000000003,-0.10300000000000001
1701528847.485,19.609,19.609,-19.609,-0.0036000000000000003,0.0004,0.0103,0.002,-0.014,-0.094
1701528847.5249999,19.609,19.609,-19.609,-0.0021000000000000003,0.0009000000000000001,0.0007,0.026000000000000002,-0.046,-0.096
1701528847.565,19.609,19.609,-19.609,-0.0009000000000000001,-0.0018000000000000002,-0.0031000000000000003,-0.014,-0.037,-0.089
1701528847.605,19.609,19.609,-19.609,0.0016,0.0022,0.0063,-0.011,-0.042,-0.094
1701528847.645,19.609,19.609,-19.609,-0.0011,0.0022,0.0097,-0.003,-0.045,-0.091
1701528847.685,19.609,19.609,-19.609,-0.0017000000000000001,0.0025,0.0114,-0.011,-0.052000000000000005,-0.101
1701528847.725,19.609,19.609,-19.609,-0.0041,0.00030000000000000003,0.0004,-0.005,-0.04,-0.099
1701528847.7649999,19.609,19.609,-19.609,0.0,0.0013000000000000002,0.0137,0.006,-0.054,-0.097
1701528847.805,19.609,19.609,-19.609,-0.0006000000000000001,0.0008,-0.0031000000000000003,0.012,-0.046,-0.099
1701528847.845,19.609,19.609,-19.609,-0.0034000000000000002,-0.0001,0.027800000000000002,-0.006,-0.042,-0.094
1701528847.885,19.609,19.609,-19.609,-0.0018000000000000002,-0.0004,0.0016,0.014,-0.037,-0.096
1701528847.925,19.609,19.609,-19.609,-0.0012000000000000001,0.0028,-0.0143,-0.004,-0.033,-0.094
1701528847.965,19.609,19.609,-19.609,-0.0004,0.004,0.006500000000000001,-0.005,-0.029,-0.091
1701528848.0049999,19.609,19.609,-19.609,0.0009000000000000001,0.0039000000000000003,0.0013000000000000002,-0.003,-0.034,-0.093
1701528848.045,19.609,19.609,-19.609,-0.0025,0.0012000000000000001,-0.0015,0.0,-0.034,-0.097
1701528848.085,19.609,19.609,-19.609,-0.0021000000000000003,-0.0004,0.0046,0.005,-0.04,-0.094
1701528848.125,19.609,19.609,-19.609,0.0011,0.0031000000000000003,0.0057,0.017,-0.04,-0.09
1701528848.165,19.609,19.609,-19.609,-0.0005,0.0023,0.0109,0.008,-0.04,-0.094
1701528848.205,19.609,19.609,-19.609,-0.001,0.0004,-0.006900000000000001,0.018000000000000002,-0.045,-0.089
1701528848.245,19.609,19.609,-19.609,-0.0009000000000000001,0.0004,0.0103,0.003,-0.038,-0.101
1701528848.285,19.609,19.609,-19.609,-0.0002,0.0012000000000000001,-0.0047,-0.003,-0.033,-0.097
1701528848.325,19.609,19.609,-19.609,-0.0018000000000000002,0.0007,0.017,0.007,-0.047,-0.1
1701528848.365,19.609,19.609,-19.609,-0.001,0.00030000000000000003,-0.0045000000000000005,0.004,-0.048,-0.10400000000000001
1701528848.405,19.609,19.609,-19.609,-0.0021000000000000003,0.001,0.0064,-0.003,-0.039,-0.109
1701528848.445,19.609,19.609,-19.609,-0.0023,0.0015,0.0025,0.003,-0.044,-0.097
1701528848.485,19.609,19.609,-19.609,-0.0021000000000000003,0.0007,0.0137,0.002,-0.05,-0.098
1701528848.525,19.609,19.609,-19.609,-0.0005,0.003,0.002,0.009000000000000001,-0.047,-0.099
1701528848.565,19.609,19.609,-19.609,-0.0014,-0.001,0.0079,0.005,-0.045,-0.097
1701528848.605,19.609,19.609,-19.609,0.0018000000000000002,0.0025,0.013000000000000001,-0.002,-0.045,-0.093
1701528848.645,19.609,19.609,-19.609,-0.0002,0.0014,0.0142,0.0,-0.042,-0.093
1701528848.685,19.609,19.609,-19.609,-0.0025,0.0026000000000000003,-0.0071,0.003,-0.047,-0.093
1701528848.725,19.609,19.609,-19.609,0.0001,0.0014,-0.0033,-0.001,-0.037,-0.109
1701528848.765,19.609,19.609,-19.609,-0.0011,0.0012000000000000001,0.0207,0.0,-0.034,-0.095
1701528848.805,19.609,19.609,-19.609,-0.001,-0.0008,-0.0006000000000000001,-0.003,-0.037,-0.089
1701528848.845,19.609,19.609,-19.609,0.0009000000000000001,0.004200000000000001,0.0071,-0.008,-0.041,-0.091
1701528848.885,19.609,19.609,-19.609,-0.0014,0.0006000000000000001,0.0007,0.007,-0.036000000000000004,-0.091
1701528848.925,19.609,19.609,-19.609,-0.0013000000000000002,0.0021000000000000003,0.0083,-0.005,-0.033,-0.09
1701528848.965,19.609,19.609,-19.609,0.0015,0.0014,0.006200000000000001,-0.012,-0.028,-0.085
1701528849.005,19.609,19.609,-19.609,-0.0017000000000000001,0.0007,-0.0025,-0.009000000000000001,-0.033,-0.075
1701528849.045,19.609,19.609,-19.609,0.0,0.0023,-0.0007,-0.008,-0.026000000000000002,-0.09
1701528849.085,19.609,19.609,-19.609,-0.0009000000000000001,-0.0004,-0.004200000000000001,-0.052000000000000005,-0.036000000000000004,-0.079
1701528849.125,19.609,19.609,-19.609,-0.002,0.0006000000000000001,0.038,-0.002,-0.042,-0.083
1701528849.165,19.609,19.609,-19.609,0.0012000000000000001,0.0016,-0.004200000000000001,-0.006,-0.053,-0.097
1701528849.205,19.609,19.609,-19.609,-0.0014,0.0006000000000000001,-0.0024000000000000002,0.007,-0.046,-0.098
1701528849.245,19.609,19.609,-19.609,0.0,-0.0006000000000000001,0.0038,0.022,-0.047,-0.097
1701528849.2849998,19.609,19.609,-19.609,-0.0031000000000000003,0.001,0.0079,0.0,-0.042,-0.092
1701528849.325,19.609,19.609,-19.609,-0.0018000000000000002,0.0023,0.008700000000000001,-0.01,-0.066,-0.096
1701528849.365,19.609,19.609,-19.609,-0.0009000000000000001,0.0006000000000000001,-0.0078000000000000005,-0.004,-0.038,-0.1
1701528849.405,19.609,19.609,-19.609,-0.0014,0.0021000000000000003,0.0183,-0.004,-0.037,-0.10300000000000001
1701528849.445,19.609,19.609,-19.609,-0.0015,0.0028,0.007500000000000001,-0.002,-0.043000000000000003,-0.093
1701528849.485,19.609,19.609,-19.609,-0.0001,0.002,-0.0094,-0.007,-0.033,-0.096
1701528849.5249999,19.609,19.609,-19.609,-0.0014,0.0022,0.0125,-0.004,-0.034,-0.10200000000000001
1701528849.565,19.609,19.609,-19.609,0.0004,-0.0002,0.0014,0.006,-0.041,-0.099
1701528849.605,19.609,19.609,-19.609,-0.0024000000000000002,0.0007,0.0034000000000000002,0.0,-0.012,-0.092
1701528849.645,19.609,19.609,-19.609,0.0031000000000000003,0.0035,-0.0008,-0.007,-0.028,-0.1
1701528849.685,19.609,19.609,-19.609,-0.0012000000000000001,0.0015,0.006500000000000001,-0.023,-0.029,-0.089
1701528849.725,19.609,19.609,-19.609,-0.0013000000000000002,0.0013000000000000002,0.0014,0.002,-0.034,-0.091
1701528849.7649999,19.609,19.609,-19.609,-0.0028,0.0021000000000000003,0.0051,-0.001,-0.02,-0.098
1701528849.805,19.609,19.609,-19.609,-0.0004,0.001,0.010700000000000001,-0.007,-0.03,-0.091
1701528849.845,19.609,19.609,-19.609,-0.0011,0.0016,0.002,0.0,-0.04,-0.097
1701528849.885,19.609,19.609,-19.609,-0.0018000000000000002,0.0007,0.0039000000000000003,0.005,-0.046,-0.1
1701528849.925,19.609,19.609,-19.609,-0.0008,0.0029000000000000002,0.0022,0.003,-0.047,-0.095
1701528849.965,19.609,19.609,-19.609,-0.0002,0.0018000000000000002,0.001,0.0,-0.038,-0.095
1701528850.0049999,19.609,19.609,-19.609,-0.004200000000000001,0.0014,0.0291,0.001,-0.035,-0.094
1701528850.045,19.609,19.609,-19.609,-0.0021000000000000003,0.0018000000000000002,0.0031000000000000003,-0.002,-0.034,-0.095
1701528850.085,19.609,19.609,-19.609,-0.001,0.002,-0.0004,-0.003,-0.038,-0.095
1701528850.125,19.609,19.609,-19.609,-0.0029000000000000002,-0.00030000000000000003,-0.0043,-0.001,-0.034,-0.092
1701528850.165,19.609,19.609,-19.609,-0.0014,0.0025,0.004,-0.006,-0.033,-0.093
1701528850.205,19.609,19.609,-19.609,-0.0014,0.0026000000000000003,-0.0022,-0.001,-0.04,-0.098
1701528850.245,19.609,19.609,-19.609,-0.0029000000000000002,0.0006000000000000001,0.0018000000000000002,-0.003,-0.029,-0.09
1701528850.285,19.609,19.609,-19.609,-0.0066,0.0016,0.0,0.0,-0.031,-0.082
1701528850.325,19.609,19.609,-19.609,-0.0014,0.0021000000000000003,-0.0296,-0.017,-0.027,-0.09
1701528850.365,19.609,19.609,-19.609,-0.00030000000000000003,0.0014,0.0247,-0.019,-0.018000000000000002,-0.091
1701528850.405,19.609,19.609,-19.609,-0.0006000000000000001,0.0001,0.0031000000000000003,-0.005,-0.033,-0.098
1701528850.445,19.609,19.609,-19.609,0.0002,0.0025,0.014400000000000001,-0.005,-0.034,-0.092
1701528850.485,19.609,19.609,-19.609,0.0001,-0.0004,0.0056,0.004,-0.037,-0.1
1701528850.525,19.609,19.609,-19.609,-0.0016,-0.0011,-0.0024000000000000002,0.005,-0.042,-0.099
1701528850.565,19.609,19.609,-19.609,-0.0009000000000000001,0.0022,0.006900000000000001,0.0,-0.049,-0.098
1701528850.605,19.609,19.609,-19.609,-0.0006000000000000001,0.0011,0.0134,-0.001,-0.043000000000000003,-0.097
1701528850.645,19.609,19.609,-19.609,-0.0009000000000000001,0.0026000000000000003,0.0066,0.005,-0.045,-0.096
1701528850.685,19.609,19.609,-19.609,-0.0031000000000000003,-0.0004,0.0073,-0.001,-0.031,-0.097
1701528850.725,19.609,19.609,-19.609,0.0029000000000000002,0.0007,0.0012000000000000001,0.012,-0.041,-0.095
1701528850.765,19.609,19.609,-19.609,-0.0026000000000000003,0.0,0.0073,-0.003,-0.038,-0.094
1701528850.805,19.609,19.609,-19.609,-0.0021000000000000003,0.0032,-0.00030000000000000003,0.0,-0.038,-0.088
1701528850.845,19.609,19.609,-19.609,-0.0018000000000000002,0.0007,0.0031000000000000003,-0.005,-0.034,-0.099
1701528850.885,19.609,19.609,-19.609,0.0,0.0018000000000000002,0.0078000000000000005,-0.003,-0.021,-0.099
1701528850.925,19.609,19.609,-19.609,0.0025,0.00030000000000000003,0.0037,0.006,-0.031,-0.096
1701528850.965,19.609,19.609,-19.609,-0.0028,0.0024000000000000002,0.0031000000000000003,0.0,-0.035,-0.094
1701528851.005,19.609,19.609,-19.609,-0.0007,0.001,0.0098,-0.003,-0.036000000000000004,-0.093
1701528851.045,19.609,19.609,-19.609,-0.0019,0.0018000000000000002,0.0054,-0.027,-0.034,-0.095
1701528851.085,19.609,19.609,-19.609,-0.00030000000000000003,0.0002,0.0073,-0.006,-0.022,-0.098
1701528851.125,19.609,19.609,-19.609,-0.0013000000000000002,0.0001,0.0033,0.002,-0.035,-0.08700000000000001
1701528851.165,19.609,19.609,-19.609,-0.0012000000000000001,0.0008,-0.0068000000000000005,-0.001,-0.035,-0.096
1701528851.205,19.609,19.609,-19.609,-0.0009000000000000001,0.0011,0.037200000000000004,0.001,-0.029,-0.098
1701528851.245,19.609,19.609,-19.609,0.0,0.002,0.0012000000000000001,-0.004,-0.031,-0.094
1701528851.2849998,19.609,19.609,-19.609,-0.0028,0.0026000000000000003,0.002,0.003,-0.041,-0.097
1701528851.325,19.609,19.609,-19.609,-0.0001,0.0032,0.0056,0.001,-0.034,-0.10300000000000001
1701528851.365,19.609,19.609,-19.609,-0.00030000000000000003,0.0001,0.0059,0.001,-0.027,-0.093
1701528851.405,19.609,19.609,-19.609,-0.0021000000000000003,0.0,-0.0041,0.003,-0.039,-0.091
1701528851.445,19.609,19.609,-19.609,0.0013000000000000002,0.0006000000000000001,0.007500000000000001,-0.002,-0.033,-0.096
1701528851.485,19.609,19.609,-19.609,-0.004,0.0008,0.0029000000000000002,-0.003,-0.034,-0.08700000000000001
1701528851.5249999,19.609,19.609,-19.609,-0.0018000000000000002,0.0004,0.008700000000000001,0.0,-0.035,-0.097
1701528851.565,19.609,19.609,-19.609,-0.002,0.0007,0.0117,-0.002,-0.038,-0.099
1701528851.605,19.609,19.609,-19.609,0.0,0.0023,0.005200000000000001,0.003,-0.041,-0.10200000000000001
1701528851.645,19.609,19.609,-19.609,0.0005,0.0017000000000000001,0.0035,-0.001,-0.04,-0.089
1701528851.685,19.609,19.609,-19.609,-0.0018000000000000002,-0.0008,-0.0082,-0.004,-0.035,-0.095
1701528851.725,19.609,19.609,-19.609,0.001,-0.0001,0.0393,-0.006,-0.036000000000000004,-0.08700000000000001
1701528851.7649999,19.609,19.609,-19.609,-0.0026000000000000003,0.0022,0.0054,0.007,-0.032,-0.089
1701528851.805,19.609,19.609,-19.609,-0.0011,0.0004,-0.006900000000000001,-0.013000000000000001,-0.023,-0.08600000000000001
1701528851.845,19.609,19.609,-19.609,0.0,-0.0007,0.008400000000000001,-0.014,-0.018000000000000002,-0.088
1701528851.885,19.609,19.609,-19.609,-0.0029000000000000002,0.0012000000000000001,0.001,-0.007,-0.027,-0.09
1701528851.925,19.609,19.609,-19.609,-0.0025,0.0014,-0.004200000000000001,0.0,-0.033,-0.098
1701528851.965,19.609,19.609,-19.609,0.0017000000000000001,0.0018000000000000002,0.015700000000000002,0.001,-0.042,-0.094
1701528852.0049999,19.609,19.609,-19.609,-0.001,0.0013000000000000002,0.0005,0.004,-0.049,-0.098
1701528852.045,19.609,19.609,-19.609,-0.0015,0.0009000000000000001,-0.0025,-0.001,-0.047,-0.10200000000000001
1701528852.085,19.609,19.609,-19.609,-0.0018000000000000002,0.0022,0.028300000000000002,0.003,-0.051000000000000004,-0.098
1701528852.125,19.609,19.609,-19.609,-0.0021000000000000003,0.0,0.0073,0.0,-0.043000000000000003,-0.096
1701528852.165,19.609,19.609,-19.609,-0.00030000000000000003,0.0026000000000000003,-0.0027,-0.003,-0.048,-0.097
1701528852.205,19.609,19.609,-19.609,-0.0009000000000000001,0.0024000000000000002,0.0036000000000000003,-0.001,-0.045,-0.1
1701528852.245,19.609,19.609,-19.609,-0.0022,0.0007,-0.010400000000000001,-0.003,-0.041,-0.099
1701528852.285,19.609,19.609,-19.609,-0.001,-0.0012000000000000001,0.0224,-0.006,-0.046,-0.10300000000000001
1701528852.325,19.609,19.609,-19.609,-0.006500000000000001,0.0009000000000000001,0.0098,-0.01,-0.039,-0.099
1701528852.365,19.609,19.609,-19.609,-0.0007,-0.00030000000000000003,0.0111,-0.009000000000000001,-0.03,-0.092
1701528852.405,19.609,19.609,-19.609,-0.0015,0.0021000000000000003,0.0041,-0.012,-0.031,-0.093
1701528852.445,19.609,19.609,-19.609,0.0016,0.0026000000000000003,0.0028,-0.008,-0.037,-0.099
1701528852.485,19.609,19.609,-19.609,-0.0017000000000000001,0.0005,0.0077,0.0,-0.034,-0.092
1701528852.525,19.609,19.609,-19.609,-0.0037,0.0006000000000000001,0.0015,-0.019,-0.026000000000000002,-0.1
1701528852.565,19.609,19.609,-19.609,-0.00030000000000000003,0.0011,0.0039000000000000003,-0.017,-0.031,-0.08700000000000001
1701528852.605,19.609,19.609,-19.609,0.0011,0.0015,0.012700000000000001,0.004,-0.029,-0.088
1701528852.645,19.609,19.609,-19.609,-0.0008,0.0,0.0035,-0.006,-0.025,-0.098
1701528852.685,19.609,19.609,-19.609,-0.0024000000000000002,0.0009000000000000001,0.0036000000000000003,-0.012,-0.023,-0.091
1701528852.725,19.609,19.609,-19.609,-0.0006000000000000001,0.0004,0.0097,-0.001,-0.034,-0.084
1701528852.765,19.609,19.609,-19.609,-0.0014,-0.0005,0.0057,0.005,-0.043000000000000003,-0.094
1701528852.805,19.609,19.609,-19.609,-0.0041,0.0,-0.0112,0.006,-0.044,-0.101
1701528852.845,19.609,19.609,-19.609,0.0014,0.0009000000000000001,0.0264,0.011,-0.043000000000000003,-0.093
1701528852.885,19.609,19.609,-19.609,-0.0027,0.0016,-0.0152,0.002,-0.042,-0.098
1701528852.925,19.609,19.609,-19.609,-0.0017000000000000001,0.0012000000000000001,-0.010400000000000001,-0.002,-0.037,-0.091
1701528852.965,19.609,19.609,-19.609,-0.001,0.00030000000000000003,0.0222,0.008,-0.038,-0.095
1701528853.005,19.609,19.609,-19.609,-0.0021000000000000003,0.004200000000000001,0.0032,-0.002,-0.045,-0.094
1701528853.045,19.609,19.609,-19.609,-0.0012000000000000001,-0.002,-0.0112,0.0,-0.045,-0.091
1701528853.085,19.609,19.609,-19.609,0.0004,0.0005,0.0434,-0.005,-0.034,-0.094
1701528853.125,19.609,19.609,-19.609,-0.00030000000000000003,0.0017000000000000001,-0.0054,0.0,-0.042,-0.093
1701528853.165,19.609,19.609,-19.609,-0.0002,0.0005,0.0029000000000000002,-0.007,-0.039,-0.097
1701528853.205,19.609,19.609,-19.609,0.0016,0.0,0.018000000000000002,-0.004,-0.034,-0.093
1701528853.245,19.609,19.609,-19.609,-0.0064,0.0023,-0.0051,-0.003,-0.039,-0.093
1701528853.2849998,19.609,19.609,-19.609,-0.0019,0.0001,0.0261,-0.018000000000000002,-0.025,-0.092
1701528853.325,19.609,19.609,-19.609,-0.003,0.0012000000000000001,0.0021000000000000003,-0.011,-0.017,-0.094
1701528853.365,19.609,19.609,-19.609,-0.0035,0.003,-0.0007,-0.009000000000000001,-0.03,-0.096
1701528853.405,19.609,19.609,-19.609,-0.00030000000000000003,0.0021000000000000003,-0.0019,-0.009000000000000001,-0.03,-0.08700000000000001
1701528853.445,19.609,19.609,-19.609,-0.002,0.0009000000000000001,0.0066,-0.009000000000000001,-0.031,-0.093
1701528853.485,19.609,19.609,-19.609,-0.0002,0.0,-0.010100000000000001,0.003,-0.049,-0.092
1701528853.5249999,19.609,19.609,-19.609,-0.0034000000000000002,0.0026000000000000003,0.0037,0.0,-0.043000000000000003,-0.10300000000000001
1701528853.565,19.609,19.609,-19.609,-0.0025,0.0009000000000000001,0.010100000000000001,0.004,-0.045,-0.096
1701528853.605,19.609,19.609,-19.609,-0.0028,0.0017000000000000001,-0.010100000000000001,0.0,-0.045,-0.094
1701528853.645,19.609,19.609,-19.609,-0.0021000000000000003,0.002,0.0439,0.0,-0.047,-0.099
1701528853.685,19.609,19.609,-19.609,-0.0017000000000000001,0.0004,-0.0079,-0.009000000000000001,-0.039,-0.092
1701528853.725,19.609,19.609,-19.609,-0.0014,0.001,0.0045000000000000005,-0.006,-0.039,-0.101
1701528853.7649999,19.609,19.609,-19.609,0.0,0.001,0.0011,-0.004,-0.034,-0.097
1701528853.805,19.609,19.609,-19.609,-0.0025,0.0017000000000000001,0.0006000000000000001,-0.003,-0.042,-0.101
1701528853.845,19.609,19.609,-19.609,-0.0002,-0.0001,-0.00030000000000000003,-0.011,-0.032,-0.08700000000000001
1701528853.885,19.609,19.609,-19.609,-0.0014,0.00030000000000000003,0.007,0.004,-0.039,-0.091
1701528853.925,19.609,19.609,-19.609,-0.0018000000000000002,0.001,0.0045000000000000005,-0.005,-0.029,-0.1
1701528853.965,19.609,19.609,-19.609,0.0006000000000000001,0.0037,0.0005,0.0,-0.024,-0.091
1701528854.0049999,19.609,19.609,-19.609,0.00030000000000000003,0.0011,0.0066,-0.007,-0.029,-0.093
1701528854.045,19.609,19.609,-19.609,-0.0006000000000000001,0.0015,0.0057,-0.018000000000000002,-0.029,-0.092
1701528854.085,19.609,19.609,-19.609,-0.0028,0.0007,0.0089,-0.005,-0.02,-0.089
1701528854.125,19.609,19.609,-19.609,0.00030000000000000003,0.0026000000000000003,-0.0195,-0.007,-0.029,-0.098
1701528854.165,19.609,19.609,-19.609,-0.0006000000000000001,0.0001,0.053700000000000005,-0.008,-0.036000000000000004,-0.096
1701528854.205,19.609,19.609,-19.609,0.0001,0.0008,0.0,-0.003,-0.034,-0.093
1701528854.245,19.609,19.609,-19.609,-0.0002,0.00030000000000000003,-0.0051,-0.001,-0.041,-0.09
1701528854.285,19.609,19.609,-19.609,-0.0025,0.0029000000000000002,0.0057,0.0,-0.042,-0.098
1701528854.325,19.609,19.609,-19.609,-0.0007,0.0,0.0018000000000000002,0.005,-0.04,-0.093
1701528854.365,19.609,19.609,-19.609,-0.0029000000000000002,0.0017000000000000001,0.0025,0.004,-0.037,-0.097
1701528854.405,19.609,19.609,-19.609,-0.0001,0.0017000000000000001,0.0143,-0.011,-0.035,-0.099
1701528854.445,19.609,19.609,-19.609,-0.0025,0.0028,-0.0007,-0.009000000000000001,-0.013000000000000001,-0.093
1701528854.485,19.609,19.609,-19.609,-0.0013000000000000002,0.0025,0.0027,-0.003,-0.039,-0.101
1701528854.525,19.609,19.609,-19.609,-0.0039000000000000003,0.0002,0.001,-0.005,-0.046,-0.096
1701528854.565,19.609,19.609,-19.609,-0.0019,0.0018000000000000002,0.0092,-0.002,-0.045,-0.094
1701528854.605,19.609,19.609,-19.609,-0.0021000000000000003,0.0045000000000000005,0.00030000000000000003,-0.011,-0.027,-0.094
1701528854.645,19.609,19.609,-19.609,-0.0002,0.00030000000000000003,0.0025,0.003,-0.034,-0.098
1701528854.685,19.609,19.609,-19.609,-0.001,0.0001,0.006500000000000001,-0.009000000000000001,-0.035,-0.091
1701528854.725,19.609,19.609,-19.609,0.0,0.0005,-0.001,0.002,-0.04,-0.08600000000000001
1701528854.765,19.609,19.609,-19.609,0.0009000000000000001,0.0014,0.0119,-0.009000000000000001,-0.029,-0.096
1701528854.805,19.609,19.609,-19.609,-0.0001,0.0015,-0.0007,-0.015,-0.024,-0.092
1701528854.845,19.609,19.609,-19.609,-0.0018000000000000002,0.0009000000000000001,0.0056,-0.006,-0.027,-0.093
1701528854.885,19.609,19.609,-19.609,-0.002,0.0008,0.0041,-0.003,-0.015,-0.096
1701528854.925,19.609,19.609,-19.609,0.0026000000000000003,0.0015,-0.0142,-0.007,-0.039,-0.094
1701528854.965,19.609,19.609,-19.609,-0.0018000000000000002,0.00030000000000000003,0.0374,0.011,-0.048,-0.096
1701528855.005,19.609,19.609,-19.609,-0.0006000000000000001,0.0026000000000000003,-0.006,0.005,-0.05,-0.101
1701528855.045,19.609,19.609,-19.609,-0.0001,0.0025,0.0129,0.013000000000000001,-0.053,-0.1
1701528855.085,19.609,19.609,-19.609,0.0,0.0029000000000000002,0.0025,0.004,-0.055,-0.095
1701528855.125,19.609,19.609,-19.609,0.0021000000000000003,0.0023,-0.0024000000000000002,0.009000000000000001,-0.045,-0.094
1701528855.165,19.609,19.609,-19.609,-0.0007,0.0032,0.0017000000000000001,0.003,-0.036000000000000004,-0.10400000000000001
1701528855.205,19.609,19.609,-19.609,0.0,0.0037,0.007500000000000001,-0.004,-0.035,-0.094
1701528855.245,19.609,19.609,-19.609,-0.0027,0.0008,-0.0007,-0.002,-0.043000000000000003,-0.1
1701528855.2849998,19.609,19.609,-19.609,-0.001,0.0014,0.0083,0.0,-0.039,-0.10300000000000001
1701528855.325,19.609,19.609,-19.609,-0.003,0.0034000000000000002,0.0064,0.0,-0.039,-0.097
1701528855.365,19.609,19.609,-19.609,-0.00030000000000000003,0.0011,0.00030000000000000003,0.004,-0.039,-0.096
1701528855.405,19.609,19.609,-19.609,-0.0012000000000000001,0.0014,0.0007,-0.001,-0.039,-0.1
1701528855.445,19.609,19.609,-19.609,-0.0012000000000000001,0.0018000000000000002,0.0261,-0.004,-0.043000000000000003,-0.095
1701528855.485,19.609,19.609,-19.609,-0.0022,0.0008,0.0205,0.003,-0.044,-0.10300000000000001
1701528855.5249999,19.609,19.609,-19.609,0.0007,0.0022,0.0167,-0.003,-0.042,-0.10200000000000001
1701528855.565,19.609,19.609,-19.609,-0.00030000000000000003,0.0015,0.0159,-0.01,-0.036000000000000004,-0.09
1701528855.605,19.609,19.609,-19.609,-0.0014,0.0019,-0.0148,0.001,-0.04,-0.105
1701528855.645,19.609,19.609,-19.609,0.0007,0.0009000000000000001,-0.0081,-0.003,-0.034,-0.106
1701528855.685,19.609,19.609,-19.609,-0.0015,0.0004,0.042800000000000005,0.0,-0.036000000000000004,-0.096
1701528855.725,19.609,19.609,-19.609,-0.0006000000000000001,0.0018000000000000002,-0.0045000000000000005,0.008,-0.049,-0.10200000000000001
1701528855.7649999,19.609,19.609,-19.609,-0.0023,0.0009000000000000001,0.009600000000000001,0.003,-0.05,-0.101
1701528855.805,19.609,19.609,-19.609,-0.0018000000000000002,0.0009000000000000001,0.0037,-0.001,-0.047,-0.106
1701528855.845,19.609,19.609,-19.609,-0.0018000000000000002,0.0009000000000000001,-0.0073,0.001,-0.056,-0.095
1701528855.885,19.609,19.609,-19.609,-0.0025,0.0007,0.0079,-0.006,-0.037,-0.099
1701528855.925,19.609,19.609,-19.609,-0.0017000000000000001,0.0038,-0.0023,-0.007,-0.04,-0.10200000000000001
1701528855.965,19.609,19.609,-19.609,-0.00030000000000000003,0.0004,-0.0009000000000000001,-0.006,-0.04,-0.098
1701528856.0049999,19.609,19.609,-19.609,-0.0028,0.0035,0.013900000000000001,-0.034,-0.037,-0.094
1701528856.045,19.609,19.609,-19.609,-0.0016,0.001,-0.0004,-0.011,-0.04,-0.099
1701528856.085,19.609,19.609,-19.609,-0.0011,-0.0001,0.0053,-0.009000000000000001,-0.035,-0.092
1701528856.125,19.609,19.609,-19.609,-0.0009000000000000001,0.004,0.0148,-0.003,-0.038,-0.091
1701528856.165,19.609,19.609,-19.609,-0.002,0.0014,0.0092,-0.004,-0.038,-0.084
1701528856.205,19.609,19.609,-19.609,-0.0076,0.0014,0.0001,0.002,-0.031,-0.08700000000000001
1701528856.245,19.609,19.609,-19.609,-0.0032,0.0018000000000000002,0.0074,-0.009000000000000001,-0.019,-0.08700000000000001
1701528856.285,19.609,19.609,-19.609,-0.0014,0.0005,0.0061,-0.018000000000000002,-0.022,-0.08700000000000001
1701528856.325,19.609,19.609,-19.609,-0.0032,0.0015,0.0078000000000000005,-0.003,-0.034,-0.095
1701528856.365,19.609,19.609,-19.609,-0.0012000000000000001,-0.0007,0.0041,-0.007,-0.034,-0.101
1701528856.405,19.609,19.609,-19.609,-0.0029000000000000002,0.0007,0.0081,-0.009000000000000001,-0.035,-0.088
1701528856.445,19.609,19.609,-19.609,-0.0017000000000000001,0.0008,0.009000000000000001,-0.006,-0.033,-0.096
1701528856.485,19.609,19.609,-19.609,-0.0006000000000000001,0.0036000000000000003,0.0108,-0.004,-0.043000000000000003,-0.107
1701528856.525,19.609,19.609,-19.609,-0.0013000000000000002,0.0016,0.007200000000000001,-0.001,-0.039,-0.10300000000000001
1701528856.565,19.609,19.609,-19.609,0.0,0.0036000000000000003,0.009300000000000001,0.006,-0.048,-0.088
1701528856.605,19.609,19.609,-19.609,-0.0002,0.00030000000000000003,0.0006000000000000001,0.027,-0.042,-0.092
1701528856.645,19.609,19.609,-19.609,-0.0026000000000000003,0.0018000000000000002,0.0046,0.0,-0.037,-0.096
1701528856.685,19.609,19.609,-19.609,0.0,0.001,0.0033,0.001,-0.046,-0.096
1701528856.725,19.609,19.609,-19.609,-0.0018000000000000002,0.0028,-0.007200000000000001,0.002,-0.04,-0.092
1701528856.765,19.609,19.609,-19.609,-0.0017000000000000001,0.0006000000000000001,0.0106,0.014,-0.038,-0.097
1701528856.805,19.609,19.609,-19.609,0.0004,0.0017000000000000001,0.0066,0.0,-0.032,-0.099
1701528856.845,19.609,19.609,-19.609,-0.0009000000000000001,0.0028,0.0088,0.002,-0.038,-0.094
1701528856.885,19.609,19.609,-19.609,-0.0023,0.0012000000000000001,0.0067,-0.001,-0.03,-0.096
1701528856.925,19.609,19.609,-19.609,-0.0024000000000000002,0.0011,0.0018000000000000002,-0.001,-0.027,-0.089
1701528856.965,19.609,19.609,-19.609,-0.0024000000000000002,-0.0006000000000000001,-0.0021000000000000003,-0.003,-0.034,-0.099
1701528857.005,19.609,19.609,-19.609,0.0043,0.0014,0.0115,-0.015,-0.026000000000000002,-0.085
1701528857.045,19.609,19.609,-19.609,-0.0012000000000000001,0.00030000000000000003,0.0094,-0.001,-0.025,-0.091
1701528857.085,19.609,19.609,-19.609,-0.0004,0.0009000000000000001,0.015300000000000001,-0.006,-0.027,-0.092
1701528857.125,19.609,19.609,-19.609,-0.0002,0.0006000000000000001,-0.0043,-0.004,-0.023,-0.092
1701528857.165,19.609,19.609,-19.609,-0.0026000000000000003,0.0009000000000000001,0.0037,-0.009000000000000001,-0.028,-0.094
1701528857.205,19.609,19.609,-19.609,-0.0023,0.0008,-0.0016,0.0,-0.039,-0.098
1701528857.245,19.609,19.609,-19.609,0.0002,0.0013000000000000002,0.038200000000000005,-0.005,-0.045,-0.097
1701528857.2849998,19.609,19.609,-19.609,-0.0013000000000000002,-0.001,0.0189,-0.008,-0.04,-0.093
1701528857.325,19.609,19.609,-19.609,-0.0031000000000000003,0.0027,-0.0056,-0.01,-0.047,-0.09
1701528857.365,19.609,19.609,-19.609,-0.0024000000000000002,0.0039000000000000003,0.001,-0.005,-0.04,-0.098
1701528857.405,19.609,19.609,-19.609,0.001,0.0032,0.0001,-0.005,-0.027,-0.095
1701528857.445,19.609,19.609,-19.609,-0.0023,0.0014,0.0023,0.001,-0.034,-0.095
1701528857.485,19.609,19.609,-19.609,-0.004,0.0,0.009000000000000001,-0.004,-0.036000000000000004,-0.097
1701528857.5249999,19.609,19.609,-19.609,-0.0004,-0.0009000000000000001,0.0102,-0.003,-0.038,-0.099
1701528857.565,19.609,19.609,-19.609,0.0007,0.0008,0.0111,-0.008,-0.036000000000000004,-0.095
1701528857.605,19.609,19.609,-19.609,-0.001,0.0009000000000000001,0.0092,-0.004,-0.03,-0.097
1701528857.645,19.609,19.609,-19.609,-0.003,0.0018000000000000002,0.006200000000000001,-0.01,-0.033,-0.09
1701528857.685,19.609,19.609,-19.609,-0.0014,0.0032,0.0007,-0.003,-0.026000000000000002,-0.093
1701528857.725,19.609,19.609,-19.609,-0.004,0.0026000000000000003,0.0006000000000000001,-0.035,-0.023,-0.097
1701528857.7649999,19.609,19.609,-19.609,0.0,0.0017000000000000001,0.013900000000000001,-0.008,-0.025,-0.08700000000000001
1701528857.805,19.609,19.609,-19.609,-0.0023,0.0018000000000000002,0.012,-0.026000000000000002,-0.032,-0.081
1701528857.845,19.609,19.609,-19.609,0.0,0.0,0.007200000000000001,-0.01,-0.038,-0.096
1701528857.885,19.609,19.609,-19.609,-0.0039000000000000003,0.002,-0.0183,-0.005,-0.032,-0.10200000000000001
1701528857.925,19.609,19.609,-19.609,-0.0008,0.0021000000000000003,0.050800000000000005,-0.005,-0.033,-0.1
1701528857.965,19.609,19.609,-19.609,-0.004200000000000001,0.0012000000000000001,0.002,0.014,-0.051000000000000004,-0.098
1701528858.0049999,19.609,19.609,-19.609,0.0,0.001,0.0083,-0.002,-0.044,-0.095
1701528858.045,19.609,19.609,-19.609,-0.0023,0.0015,-0.00030000000000000003,0.006,-0.043000000000000003,-0.093
1701528858.085,19.609,19.609,-19.609,-0.0006000000000000001,0.0012000000000000001,0.004,0.001,-0.025,-0.094
1701528858.125,19.609,19.609,-19.609,-0.0029000000000000002,0.0002,0.0001,-0.005,-0.037,-0.092
1701528858.165,19.609,19.609,-19.609,0.001,0.0037,0.0117,-0.003,-0.018000000000000002,-0.099
1701528858.205,19.609,19.609,-19.609,0.0016,0.0013000000000000002,0.0021000000000000003,-0.003,-0.035,-0.097
1701528858.245,19.609,19.609,-19.609,-0.0017000000000000001,0.0017000000000000001,-0.0011,-0.005,-0.033,-0.098
1701528858.285,19.609,19.609,-19.609,0.0001,0.0007,0.0119,-0.003,-0.04,-0.095
1701528858.325,19.609,19.609,-19.609,-0.0022,0.0011,-0.0148,0.0,-0.041,-0.091
1701528858.365,19.609,19.609,-19.609,-0.001,0.0004,0.0413,0.003,-0.038,-0.095
1701528858.405,19.609,19.609,-19.609,-0.0012000000000000001,0.0015,-0.0005,-0.006,-0.031,-0.094
1701528858.445,19.609,19.609,-19.609,-0.0011,0.0016,0.0029000000000000002,-0.002,-0.03,-0.093
1701528858.485,19.609,19.609,-19.609,-0.0004,0.0028,0.002,-0.028,-0.026000000000000002,-0.101
1701528858.525,19.609,19.609,-19.609,-0.0018000000000000002,-0.0004,0.0071,0.0,-0.028,-0.095
1701528858.565,19.609,19.609,-19.609,0.001,0.0009000000000000001,0.0009000000000000001,0.006,-0.039,-0.1
1701528858.605,19.609,19.609,-19.609,-0.0032,0.0007,0.0057,0.0,-0.035,-0.10200000000000001
1701528858.645,19.609,19.609,-19.609,-0.0009000000000000001,-0.0001,0.0102,0.003,-0.044,-0.106
1701528858.685,19.609,19.609,-19.609,-0.0032,-0.0004,0.010400000000000001,0.001,-0.046,-0.099
1701528858.725,19.609,19.609,-19.609,-0.0001,0.0018000000000000002,-0.0046,0.0,-0.048,-0.10300000000000001
1701528858.765,19.609,19.609,-19.609,-0.0031000000000000003,0.0005,0.0045000000000000005,0.002,-0.045,-0.101
1701528858.805,19.609,19.609,-19.609,-0.0014,0.00030000000000000003,0.0151,0.0,-0.051000000000000004,-0.093
1701528858.845,19.609,19.609,-19.609,-0.0004,-0.0001,-0.004,-0.002,-0.039,-0.096
1701528858.885,19.609,19.609,-19.609,-0.0017000000000000001,0.002,0.0058000000000000005,-0.009000000000000001,-0.032,-0.094
1701528858.925,19.609,19.609,-19.609,-0.0038,0.0006000000000000001,0.0089,-0.011,-0.023,-0.099
1701528858.965,19.609,19.609,-19.609,-0.0025,0.0018000000000000002,-0.0112,-0.003,-0.038,-0.098
1701528859.005,19.609,19.609,-19.609,-0.0007,0.0004,-0.0053,-0.008,-0.037,-0.094
1701528859.045,19.609,19.609,-19.609,0.0019,0.0014,0.0021000000000000003,-0.002,-0.041,-0.099
1701528859.085,19.609,19.609,-19.609,0.0,-0.0008,0.0,-0.01,-0.039,-0.1
1701528859.125,19.609,19.609,-19.609,0.0009000000000000001,0.0014,0.0048000000000000004,-0.015,-0.03,-0.094
1701528859.165,19.609,19.609,-19.609,0.0006000000000000001,0.002,0.0055000000000000005,-0.01,-0.032,-0.098
1701528859.205,19.609,19.609,-19.609,-0.0024000000000000002,0.0006000000000000001,0.0015,-0.002,-0.025,-0.10400000000000001
1701528859.245,19.609,19.609,-19.609,-0.0018000000000000002,0.0018000000000000002,0.0039000000000000003,-0.009000000000000001,-0.03,-0.089
1701528859.2849998,19.609,19.609,-19.609,-0.0021000000000000003,0.0004,0.0048000000000000004,-0.014,-0.02,-0.088
1701528859.325,19.609,19.609,-19.609,-0.0028,0.0015,0.0201,-0.003,-0.034,-0.099
1701528859.365,19.609,19.609,-19.609,-0.0011,0.0026000000000000003,0.004,-0.016,-0.025,-0.1
1701528859.405,19.609,19.609,-19.609,-0.0005,0.0004,-0.005200000000000001,-0.015,-0.027,-0.088
1701528859.445,19.609,19.609,-19.609,-0.0021000000000000003,0.0041,0.0032,-0.01,-0.032,-0.098
1701528859.485,19.609,19.609,-19.609,-0.0006000000000000001,0.0014,0.009000000000000001,-0.006,-0.034,-0.097
1701528859.5249999,19.609,19.609,-19.609,0.0002,0.0027,0.0097,0.006,-0.045,-0.09
1701528859.565,19.609,19.609,-19.609,-0.0009000000000000001,0.0008,0.006,0.0,-0.038,-0.088
1701528859.605,19.609,19.609,-19.609,-0.0006000000000000001,0.0016,0.006200000000000001,0.0,-0.035,-0.093
1701528859.645,19.609,19.609,-19.609,-0.0018000000000000002,0.0026000000000000003,-0.008700000000000001,0.0,-0.041,-0.092
1701528859.685,19.609,19.609,-19.609,0.0021000000000000003,0.0037,0.030100000000000002,0.006,-0.036000000000000004,-0.092
1701528859.725,19.609,19.609,-19.609,-0.0025,0.001,0.0071,0.011,-0.041,-0.093
1701528859.7649999,19.609,19.609,-19.609,-0.0005,0.0018000000000000002,0.0056,0.007,-0.044,-0.081
1701528859.805,19.609,19.609,-19.609,-0.001,0.0012000000000000001,-0.002,0.012,-0.059000000000000004,-0.085
1701528859.845,19.609,19.609,-19.609,-0.0029000000000000002,0.0012000000000000001,0.0,0.007,-0.04,-0.088
1701528859.885,19.609,19.609,-19.609,-0.0035,-0.0001,0.0285,-0.001,-0.032,-0.097
1701528859.925,19.609,19.609,-19.609,-0.0004,0.0019,-0.006200000000000001,0.012,-0.035,-0.101
1701528859.965,19.609,19.609,-19.609,-0.0002,0.0021000000000000003,0.0039000000000000003,0.007,-0.035,-0.106
1701528860.0049999,19.609,19.609,-19.609,0.0001,0.0023,0.0006000000000000001,-0.004,-0.036000000000000004,-0.099
1701528860.045,19.609,19.609,-19.609,-0.0024000000000000002,0.001,0.0043,-0.003,-0.033,-0.094
1701528860.085,19.609,19.609,-19.609,-0.0007,0.0006000000000000001,0.006500000000000001,0.006,-0.027,-0.10200000000000001
1701528860.125,19.609,19.609,-19.609,0.0006000000000000001,0.0006000000000000001,0.010700000000000001,0.003,-0.034,-0.097
1701528860.165,19.609,19.609,-19.609,-0.0005,-0.0001,0.0073,0.0,-0.035,-0.093
1701528860.205,19.609,19.609,-19.609,-0.0007,0.0021000000000000003,0.0126,0.005,-0.042,-0.099
1701528860.245,19.609,19.609,-19.609,0.0016,0.0007,0.0071,-0.001,-0.045,-0.1
1701528860.285,19.609,19.609,-19.609,-0.0023,-0.0004,-0.0006000000000000001,-0.007,-0.039,-0.095
1701528860.325,19.609,19.609,-19.609,-0.0006000000000000001,0.0005,0.0046,-0.002,-0.045,-0.091
1701528860.365,19.609,19.609,-19.609,-0.0005,0.0012000000000000001,0.0103,-0.008,-0.038,-0.094
1701528860.405,19.609,19.609,-19.609,-0.0029000000000000002,0.0028,0.0021000000000000003,-0.005,-0.032,-0.096
1701528860.445,19.609,19.609,-19.609,-0.0016,0.0007,0.004,-0.006,-0.031,-0.091
1701528860.485,19.609,19.609,-19.609,-0.0011,0.0028,0.010400000000000001,-0.009000000000000001,-0.028,-0.095
1701528860.525,19.609,19.609,-19.609,-0.0001,0.0002,0.011300000000000001,-0.009000000000000001,-0.039,-0.095
1701528860.565,19.609,19.609,-19.609,-0.0001,0.0015,0.0024000000000000002,0.002,-0.039,-0.097
1701528860.605,19.609,19.609,-19.609,-0.003,-0.0006000000000000001,0.0086,-0.004,-0.032,-0.089
1701528860.645,19.609,19.609,-19.609,-0.0009000000000000001,0.0014,0.0032,-0.002,-0.035,-0.095
1701528860.685,19.609,19.609,-19.609,-0.0012000000000000001,0.0029000000000000002,0.0067,-0.006,-0.027,-0.094
1701528860.725,19.609,19.609,-19.609,-0.0009000000000000001,0.0022,0.0347,0.0,-0.037,-0.099
1701528860.765,19.609,19.609,-19.609,-0.0012000000000000001,0.0032,0.0064,-0.018000000000000002,-0.025,-0.088
1701528860.805,19.609,19.609,-19.609,-0.0017000000000000001,0.0039000000000000003,0.0108,-0.007,-0.028,-0.08600000000000001
1701528860.845,19.609,19.609,-19.609,-0.0016,0.0014,0.0115,-0.01,-0.026000000000000002,-0.089
1701528860.885,19.609,19.609,-19.609,-0.0023,-0.0006000000000000001,0.0026000000000000003,-0.009000000000000001,-0.03,-0.091
1701528860.925,19.609,19.609,-19.609,0.0,0.0007,0.006500000000000001,-0.014,-0.028,-0.085
1701528860.965,19.609,19.609,-19.609,0.0016,0.00030000000000000003,0.0043,-0.009000000000000001,-0.037,-0.092
1701528861.005,19.609,19.609,-19.609,-0.0023,0.0002,0.0039000000000000003,0.0,-0.043000000000000003,-0.096
1701528861.045,19.609,19.609,-19.609,-0.0021000000000000003,0.0005,0.0067,0.002,-0.044,-0.096
1701528861.085,19.609,19.609,-19.609,0.00030000000000000003,0.0014,0.005,0.003,-0.036000000000000004,-0.099
1701528861.125,19.609,19.609,-19.609,-0.0007,0.0032,0.0083,0.0,-0.034,-0.096
1701528861.165,19.609,19.609,-19.609,-0.0018000000000000002,0.0036000000000000003,0.0043,-0.006,-0.031,-0.089
1701528861.205,19.609,19.609,-19.609,-0.0019,0.001,0.0055000000000000005,-0.007,-0.036000000000000004,-0.098
1701528861.245,19.609,19.609,-19.609,-0.0004,-0.0007,0.007500000000000001,0.005,-0.041,-0.088
1701528861.2849998,19.609,19.609,-19.609,-0.0015,0.00030000000000000003,0.0098,0.007,-0.035,-0.093
1701528861.325,19.609,19.609,-19.609,-0.0011,-0.0001,0.0151,-0.005,-0.032,-0.094
1701528861.365,19.609,19.609,-19.609,-0.0006000000000000001,0.002,-0.012,0.008,-0.036000000000000004,-0.095
1701528861.405,19.609,19.609,-19.609,-0.0028,0.0001,0.012700000000000001,-0.007,-0.033,-0.092
1701528861.445,19.609,19.609,-19.609,-0.002,0.0012000000000000001,0.0012000000000000001,-0.004,-0.058,-0.09
1701528861.485,19.609,19.609,-19.609,-0.0021000000000000003,0.0012000000000000001,0.0053,-0.038,-0.037,-0.096
1701528861.5249999,19.609,19.609,-19.609,-0.0021000000000000003,0.0012000000000000001,0.0145,-0.014,-0.043000000000000003,-0.093
1701528861.565,19.609,19.609,-19.609,-0.0017000000000000001,0.0017000000000000001,0.0031000000000000003,-0.014,-0.021,-0.085
1701528861.605,19.609,19.609,-19.609,-0.0032,0.0032,-0.0056,-0.005,-0.034,-0.095
1701528861.645,19.609,19.609,-19.609,0.0009000000000000001,0.0007,0.018500000000000003,-0.036000000000000004,-0.03,-0.092
1701528861.685,19.609,19.609,-19.609,-0.0023,0.0012000000000000001,-0.0049,-0.003,-0.03,-0.097
1701528861.725,19.609,19.609,-19.609,-0.0012000000000000001,0.001,0.0026000000000000003,0.007,-0.047,-0.089
1701528861.7649999,19.609,19.609,-19.609,-0.0015,0.0014,0.0015,0.005,-0.046,-0.1
1701528861.805,19.609,19.609,-19.609,-0.0043,0.0025,0.006200000000000001,0.006,-0.047,-0.1
1701528861.845,19.609,19.609,-19.609,-0.0009000000000000001,0.0041,-0.0038,0.001,-0.038,-0.1
1701528861.885,19.609,19.609,-19.609,-0.0014,0.0015,0.0134,0.0,-0.031,-0.093
1701528861.925,19.609,19.609,-19.609,-0.001,0.0028,0.0017000000000000001,-0.002,-0.04,-0.099
1701528861.965,19.609,19.609,-19.609,-0.0023,0.0018000000000000002,0.0058000000000000005,-0.005,-0.039,-0.101
1701528862.0049999,19.609,19.609,-19.609,0.0007,-0.0002,0.0037,0.002,-0.044,-0.1
1701528862.045,19.609,19.609,-19.609,-0.004,0.0009000000000000001,-0.0015,-0.005,-0.044,-0.095
1701528862.085,19.609,19.609,-19.609,-0.0021000000000000003,0.002,0.0012000000000000001,-0.006,-0.043000000000000003,-0.093
1701528862.125,19.609,19.609,-19.609,-0.0004,-0.0001,0.0146,0.001,-0.044,-0.098
1701528862.165,19.609,19.609,-19.609,-0.0008,0.002,0.012,-0.004,-0.036000000000000004,-0.10200000000000001
1701528862.205,19.609,19.609,-19.609,-0.0014,0.0012000000000000001,0.0085,0.002,-0.046,-0.101
1701528862.245,19.609,19.609,-19.609,-0.0025,0.0006000000000000001,0.0058000000000000005,0.001,-0.037,-0.1
1701528862.285,19.609,19.609,-19.609,-0.0002,0.0012000000000000001,0.0095,-0.012,-0.029,-0.097
1701528862.325,19.609,19.609,-19.609,-0.0029000000000000002,0.0033,0.0025,-0.008,-0.035,-0.093
1701528862.365,19.609,19.609,-19.609,-0.00030000000000000003,0.0,0.0031000000000000003,-0.008,-0.034,-0.101
1701528862.405,19.609,19.609,-19.609,-0.0005,0.00030000000000000003,0.015300000000000001,-0.01,-0.039,-0.10400000000000001
1701528862.445,19.609,19.609,-19.609,-0.0009000000000000001,0.0014,-0.0023,-0.011,-0.037,-0.08700000000000001
1701528862.485,19.609,19.609,-19.609,-0.0006000000000000001,0.001,0.0048000000000000004,-0.001,-0.045,-0.094
1701528862.525,19.609,19.609,-19.609,0.0002,0.0007,0.0085,0.0,-0.045,-0.107
1701528862.565,19.609,19.609,-19.609,-0.0002,0.0015,0.0031000000000000003,0.0,-0.041,-0.10400000000000001
1701528862.605,19.609,19.609,-19.609,-0.0023,0.0026000000000000003,-0.0021000000000000003,-0.006,-0.034,-0.094
1701528862.645,19.609,19.609,-19.609,-0.0026000000000000003,0.001,0.004200000000000001,-0.006,-0.041,-0.094
1701528862.685,19.609,19.609,-19.609,-0.0004,0.001,0.0051,-0.002,-0.038,-0.096
1701528862.725,19.609,19.609,-19.609,-0.0029000000000000002,0.002,0.018000000000000002,-0.003,-0.042,-0.10200000000000001
1701528862.765,19.609,19.609,-19.609,-0.0021000000000000003,0.0039000000000000003,-0.0004,-0.003,-0.034,-0.098
1701528862.805,19.609,19.609,-19.609,0.0,-0.0001,0.0061,-0.008,-0.038,-0.09
1701528862.845,19.609,19.609,-19.609,-0.0018000000000000002,0.0001,0.007500000000000001,-0.008,-0.027,-0.092
1701528862.885,19.609,19.609,-19.609,-0.001,0.0022,-0.002,0.003,-0.043000000000000003,-0.089
1701528862.925,19.609,19.609,-19.609,-0.0023,0.0032,0.0131,0.005,-0.04,-0.10300000000000001
1701528862.965,19.609,19.609,-19.609,-0.0012000000000000001,0.0031000000000000003,0.004200000000000001,0.009000000000000001,-0.034,-0.097
1701528863.005,19.609,19.609,-19.609,-0.0033,0.00030000000000000003,0.0014,-0.007,-0.029,-0.083
1701528863.045,19.609,19.609,-19.609,0.0007,-0.0025,0.0109,-0.002,-0.033,-0.091
1701528863.085,19.609,19.609,-19.609,-0.0018000000000000002,-0.0008,0.0043,0.004,-0.037,-0.095
1701528863.125,19.609,19.609,-19.609,0.0002,-0.0007,-0.0018000000000000002,-0.002,-0.036000000000000004,-0.096
1701528863.165,19.609,19.609,-19.609,-0.0015,0.0016,0.024200000000000003,-0.006,-0.036000000000000004,-0.08600000000000001
1701528863.205,19.609,19.609,-19.609,-0.0025,0.0006000000000000001,-0.0018000000000000002,0.0,-0.065,-0.094
1701528863.245,19.609,19.609,-19.609,-0.0025,0.0038,-0.0008,0.0,-0.043000000000000003,-0.094
1701528863.2849998,19.609,19.609,-19.609,-0.00030000000000000003,-0.001,0.016,0.0,-0.037,-0.098
1701528863.325,19.609,19.609,-19.609,0.0045000000000000005,0.0023,-0.0122,0.003,-0.043000000000000003,-0.088
1701528863.365,19.609,19.609,-19.609,-0.0021000000000000003,0.0029000000000000002,0.0092,0.002,-0.036000000000000004,-0.094
1701528863.405,19.609,19.609,-19.609,-0.0006000000000000001,0.0001,0.0014,0.004,-0.037,-0.093
1701528863.445,19.609,19.609,-19.609,-0.0015,0.0021000000000000003,0.01,-0.007,-0.038,-0.098
1701528863.485,19.609,19.609,-19.609,-0.0015,0.0009000000000000001,-0.0026000000000000003,0.0,-0.046,-0.095
1701528863.5249999,19.609,19.609,-19.609,0.0012000000000000001,0.0038,0.0053,-0.001,-0.042,-0.096
1701528863.565,19.609,19.609,-19.609,-0.002,0.0036000000000000003,0.0055000000000000005,-0.003,-0.041,-0.094
1701528863.605,19.609,19.609,-19.609,-0.0009000000000000001,0.0012000000000000001,0.005200000000000001,-0.002,-0.041,-0.095
1701528863.645,19.609,19.609,-19.609,-0.0009000000000000001,0.0015,0.007,-0.004,-0.032,-0.093
1701528863.685,19.609,19.609,-19.609,-0.003,0.0015,0.0054,0.001,-0.038,-0.092
1701528863.725,19.609,19.609,-19.609,0.0015,0.0001,0.0091,-0.001,-0.041,-0.088
1701528863.7649999,19.609,19.609,-19.609,-0.0028,-0.00030000000000000003,-0.0017000000000000001,-0.015,-0.026000000000000002,-0.091
1701528863.805,19.609,19.609,-19.609,-0.0011,0.0026000000000000003,0.012,-0.013000000000000001,-0.027,-0.08700000000000001
1701528863.845,19.609,19.609,-19.609,0.0028,0.0021000000000000003,0.0076,-0.001,-0.038,-0.095
1701528863.885,19.609,19.609,-19.609,-0.0007,-0.0004,-0.0033,-0.011,-0.031,-0.095
1701528863.925,19.609,19.609,-19.609,-0.0013000000000000002,0.003,0.014400000000000001,-0.008,-0.038,-0.094
1701528863.965,19.609,19.609,-19.609,-0.0032,0.0028,-0.0034000000000000002,0.003,-0.043000000000000003,-0.096
1701528864.0049999,19.609,19.609,-19.609,-0.002,0.0006000000000000001,0.0217,0.003,-0.047,-0.098
1701528864.045,19.609,19.609,-19.609,-0.0012000000000000001,0.0016,-0.0089,0.001,-0.045,-0.095
1701528864.085,19.609,19.609,-19.609,-0.0012000000000000001,0.003,0.012700000000000001,-0.002,-0.043000000000000003,-0.098
1701528864.125,19.609,19.609,-19.609,-0.0037,-0.0009000000000000001,-0.005200000000000001,-0.001,-0.04,-0.092
1701528864.165,19.609,19.609,-19.609,-0.0031000000000000003,0.0016,0.0098,-0.009000000000000001,-0.03,-0.095
1701528864.205,19.609,19.609,-19.609,-0.0027,0.0004,0.0023,-0.01,-0.029,-0.097
1701528864.245,19.609,19.609,-19.609,-0.0028,0.0025,0.0297,-0.007,-0.033,-0.097
1701528864.285,19.609,19.609,-19.609,-0.0001,0.0028,0.0081,-0.004,-0.033,-0.095
1701528864.325,19.609,19.609,-19.609,-0.002,0.0037,-0.0029000000000000002,-0.006,-0.03,-0.096
1701528864.365,19.609,19.609,-19.609,-0.002,0.0,0.009000000000000001,-0.002,-0.035,-0.089
1701528864.405,19.609,19.609,-19.609,-0.001,0.0009000000000000001,0.0053,-0.004,-0.023,-0.097
1701528864.445,19.609,19.609,-19.609,-0.003,0.002,0.014,0.003,-0.036000000000000004,-0.093
1701528864.485,19.609,19.609,-19.609,0.0,0.0011,0.006500000000000001,-0.01,-0.04,-0.091
1701528864.525,19.609,19.609,-19.609,-0.0014,0.0023,0.0008,-0.011,-0.033,-0.093
1701528864.565,19.609,19.609,-19.609,-0.0023,0.0009000000000000001,0.0047,-0.009000000000000001,-0.033,-0.092
1701528864.605,19.609,19.609,-19.609,-0.0036000000000000003,0.0017000000000000001,0.0151,-0.004,-0.038,-0.097
1701528864.645,19.609,19.609,-19.609,-0.0016,-0.00030000000000000003,-0.00030000000000000003,-0.008,-0.03,-0.096
1701528864.685,19.609,19.609,-19.609,-0.0017000000000000001,0.0018000000000000002,0.007500000000000001,0.0,-0.037,-0.096
1701528864.725,19.609,19.609,-19.609,-0.0043,0.0004,0.010400000000000001,0.0,-0.04,-0.106
1701528864.765,19.609,19.609,-19.609,-0.001,0.0015,0.0102,0.0,-0.04,-0.10200000000000001
1701528864.805,19.609,19.609,-19.609,-0.0037,0.0009000000000000001,0.0054,0.007,-0.038,-0.099
1701528864.845,19.609,19.609,-19.609,-0.00030000000000000003,-0.0004,0.0037,0.006,-0.042,-0.095
1701528864.885,19.609,19.609,-19.609,-0.0012000000000000001,0.0006000000000000001,0.0086,-0.003,-0.032,-0.1
1701528864.925,19.609,19.609,-19.609,-0.0014,0.0025,0.006900000000000001,-0.01,-0.036000000000000004,-0.097
1701528864.965,19.609,19.609,-19.609,-0.004,0.0034000000000000002,-0.0094,-0.029,-0.034,-0.10300000000000001
1701528865.005,19.609,19.609,-19.609,-0.0034000000000000002,0.0031000000000000003,0.0175,-0.01,-0.034,-0.1
1701528865.045,19.609,19.609,-19.609,-0.001,0.0026000000000000003,0.008700000000000001,-0.006,-0.04,-0.095
1701528865.085,19.609,19.609,-19.609,-0.001,0.0017000000000000001,0.0081,-0.003,-0.037,-0.096
1701528865.125,19.609,19.609,-19.609,-0.0006000000000000001,0.0014,-0.004,-0.003,-0.037,-0.10300000000000001
1701528865.165,19.609,19.609,-19.609,0.0002,0.0015,0.013900000000000001,-0.002,-0.04,-0.101
1701528865.205,19.609,19.609,-19.609,-0.0006000000000000001,0.0046,0.0032,0.002,-0.037,-0.096
1701528865.245,19.609,19.609,-19.609,-0.00030000000000000003,0.0,0.006500000000000001,-0.011,-0.031,-0.10300000000000001
1701528865.2849998,19.609,19.609,-19.609,-0.0032,-0.0002,0.013800000000000002,-0.008,-0.043000000000000003,-0.10300000000000001
1701528865.325,19.609,19.609,-19.609,-0.0018000000000000002,0.0006000000000000001,-0.0037,-0.009000000000000001,-0.03,-0.105
1701528865.365,19.609,19.609,-19.609,-0.00030000000000000003,-0.0006000000000000001,0.0177,-0.019,-0.027,-0.099
1701528865.405,19.609,19.609,-19.609,-0.0014,0.0005,-0.0012000000000000001,-0.018000000000000002,-0.025,-0.09
1701528865.445,19.609,19.609,-19.609,-0.0028,0.0019,0.0046,-0.008,-0.032,-0.10200000000000001
1701528865.485,19.609,19.609,-19.609,-0.0017000000000000001,0.0015,0.0098,-0.008,-0.029,-0.096
1701528865.5249999,19.609,19.609,-19.609,-0.0031000000000000003,-0.00030000000000000003,0.008700000000000001,-0.004,-0.03,-0.1
1701528865.565,19.609,19.609,-19.609,-0.0012000000000000001,0.0007,0.001,-0.012,-0.023,-0.10200000000000001
1701528865.605,19.609,19.609,-19.609,-0.0017000000000000001,0.0021000000000000003,0.004200000000000001,-0.016,-0.025,-0.098
1701528865.645,19.609,19.609,-19.609,0.0,0.0029000000000000002,0.0051,-0.012,-0.032,-0.088
1701528865.685,19.609,19.609,-19.609,-0.0006000000000000001,0.0016,0.013600000000000001,-0.014,-0.029,-0.08600000000000001
1701528865.725,19.609,19.609,-19.609,-0.0004,0.0032,0.001,-0.015,-0.026000000000000002,-0.101
1701528865.7649999,19.609,19.609,-19.609,-0.003,0.0023,0.0009000000000000001,-0.009000000000000001,-0.032,-0.098
1701528865.805,19.609,19.609,-19.609,-0.0025,0.0016,-0.005,-0.003,-0.035,-0.094
1701528865.845,19.609,19.609,-19.609,-0.0013000000000000002,-0.0004,0.0165,-0.01,-0.035,-0.09
1701528865.885,19.609,19.609,-19.609,-0.0026000000000000003,0.0029000000000000002,0.0181,0.005,-0.044,-0.091
1701528865.925,19.609,19.609,-19.609,-0.001,0.0,0.027700000000000002,-0.001,-0.035,-0.09
1701528865.965,19.609,19.609,-19.609,-0.0025,-0.0002,0.0071,-0.016,-0.027,-0.091
1701528866.0049999,19.609,19.609,-19.609,-0.0015,0.0,-0.0032,-0.012,-0.024,-0.088
1701528866.045,19.609,19.609,-19.609,-0.0026000000000000003,-0.0004,0.0017000000000000001,-0.001,-0.043000000000000003,-0.094
1701528866.085,19.609,19.609,-19.609,-0.002,0.0025,0.012100000000000001,-0.007,-0.041,-0.097
1701528866.125,19.609,19.609,-19.609,0.0013000000000000002,0.0024000000000000002,0.0082,-0.003,-0.036000000000000004,-0.095
1701528866.165,19.609,19.609,-19.609,-0.0031000000000000003,0.00030000000000000003,0.007,0.008,-0.054,-0.095
1701528866.205,19.609,19.609,-19.609,-0.00030000000000000003,0.0004,0.0067,0.005,-0.054,-0.096
1701528866.245,19.609,19.609,-19.609,0.00030000000000000003,0.0014,0.0056,0.007,-0.048,-0.097
1701528866.285,19.609,19.609,-19.609,-0.0021000000000000003,0.0009000000000000001,-0.0031000000000000003,0.001,-0.045,-0.089
1701528866.325,19.609,19.609,-19.609,-0.001,0.0017000000000000001,0.006900000000000001,0.003,-0.043000000000000003,-0.092
1701528866.365,19.609,19.609,-19.609,-0.0016,0.0011,-0.0031000000000000003,0.018000000000000002,-0.033,-0.094
1701528866.405,19.609,19.609,-19.609,-0.0059,0.0007,0.0291,-0.001,-0.038,-0.092
1701528866.445,19.609,19.609,-19.609,-0.0013000000000000002,0.0006000000000000001,-0.0035,0.003,-0.042,-0.096
1701528866.485,19.609,19.609,-19.609,0.0008,0.0007,0.0006000000000000001,0.008,-0.045,-0.094
1701528866.525,19.609,19.609,-19.609,-0.002,0.0007,0.0032,-0.001,-0.043000000000000003,-0.091
1701528866.565,19.609,19.609,-19.609,-0.0026000000000000003,0.0008,0.0155,0.003,-0.039,-0.093
1701528866.605,19.609,19.609,-19.609,-0.0033,0.0004,0.005,-0.007,-0.038,-0.109
1701528866.645,19.609,19.609,-19.609,0.0,0.0032,0.0108,0.0,-0.042,-0.09
1701528866.685,19.609,19.609,-19.609,0.0045000000000000005,0.002,0.0025,0.001,-0.038,-0.094
1701528866.725,19.609,19.609,-19.609,-0.0005,0.001,0.0047,-0.011,-0.035,-0.092
1701528866.765,19.609,19.609,-19.609,-0.0021000000000000003,0.0001,0.0021000000000000003,-0.006,-0.031,-0.092
1701528866.805,19.609,19.609,-19.609,0.0037,0.0032,-0.0031000000000000003,-0.003,-0.036000000000000004,-0.094
1701528866.845,19.609,19.609,-19.609,-0.0018000000000000002,0.0015,0.0086,0.0,-0.042,-0.092
1701528866.885,19.609,19.609,-19.609,-0.0015,0.0008,0.013600000000000001,-0.007,-0.029,-0.092
1701528866.925,19.609,19.609,-19.609,0.00030000000000000003,0.0023,0.0014,0.003,-0.04,-0.091
1701528866.965,19.609,19.609,-19.609,-0.0026000000000000003,0.0021000000000000003,0.010400000000000001,0.004,-0.047,-0.1
1701528867.005,19.609,19.609,-19.609,-0.0029000000000000002,0.0021000000000000003,0.0038,-0.022,-0.041,-0.093
1701528867.045,19.609,19.609,-19.609,-0.002,0.0018000000000000002,0.004200000000000001,0.001,-0.044,-0.091
1701528867.085,19.609,19.609,-19.609,0.0009000000000000001,-0.0001,0.0002,-0.01,-0.035,-0.091
1701528867.125,19.609,19.609,-19.609,-0.0031000000000000003,0.0005,0.0014,-0.006,-0.035,-0.093
1701528867.165,19.609,19.609,-19.609,-0.0006000000000000001,0.0014,0.0091,-0.007,-0.032,-0.095
1701528867.205,19.609,19.609,-19.609,-0.0035,0.0029000000000000002,0.0045000000000000005,-0.009000000000000001,-0.038,-0.098
1701528867.245,19.609,19.609,-19.609,-0.0017000000000000001,0.0012000000000000001,0.006500000000000001,-0.008,-0.038,-0.091
1701528867.2849998,19.609,19.609,-19.609,0.0,0.0025,0.0067,-0.002,-0.031,-0.088
1701528867.325,19.609,19.609,-19.609,-0.0031000000000000003,0.0031000000000000003,0.0078000000000000005,-0.004,-0.034,-0.096
1701528867.365,19.609,19.609,-19.609,0.0006000000000000001,0.0021000000000000003,0.0027,-0.006,-0.034,-0.093
1701528867.405,19.609,19.609,-19.609,-0.0021000000000000003,-0.00030000000000000003,0.007,-0.004,-0.044,-0.093
1701528867.445,19.609,19.609,-19.609,-0.0017000000000000001,-0.0016,-0.0184,0.002,-0.038,-0.091
1701528867.485,19.609,19.609,-19.609,-0.0012000000000000001,-0.0018000000000000002,0.046700000000000005,-0.011,-0.022,-0.095
1701528867.5249999,19.609,19.609,-19.609,-0.0012000000000000001,0.0007,-0.0088,-0.013000000000000001,-0.025,-0.092
1701528867.565,19.609,19.609,-19.609,-0.0017000000000000001,0.0006000000000000001,0.020200000000000003,-0.01,-0.025,-0.096
1701528867.605,19.609,19.609,-19.609,-0.0012000000000000001,0.0,-0.012400000000000001,-0.009000000000000001,-0.023,-0.097
1701528867.645,19.609,19.609,-19.609,-0.00030000000000000003,-0.0009000000000000001,0.026500000000000003,-0.008,-0.042,-0.10300000000000001
1701528867.685,19.609,19.609,-19.609,0.0018000000000000002,0.0004,0.010100000000000001,0.005,-0.05,-0.099
1701528867.725,19.609,19.609,-19.609,-0.004200000000000001,0.0021000000000000003,0.0135,0.008,-0.049,-0.099
1701528867.7649999,19.609,19.609,-19.609,-0.001,0.0041,0.0032,0.013000000000000001,-0.041,-0.097
1701528867.805,19.609,19.609,-19.609,-0.0047,0.0006000000000000001,-0.0014,0.01,-0.047,-0.097
1701528867.845,19.609,19.609,-19.609,-0.0013000000000000002,0.0041,0.012,0.001,-0.036000000000000004,-0.097
1701528867.885,19.609,19.609,-19.609,-0.001,0.0007,0.0045000000000000005,0.001,-0.036000000000000004,-0.10200000000000001
1701528867.925,19.609,19.609,-19.609,-0.001,0.00030000000000000003,-0.0302,0.0,-0.034,-0.095
1701528867.965,19.609,19.609,-19.609,-0.0007,0.0,0.0587,-0.004,-0.034,-0.10200000000000001
1701528868.0049999,19.609,19.609,-19.609,-0.0011,0.0018000000000000002,-0.0035,-0.004,-0.04,-0.098
1701528868.045,19.609,19.609,-19.609,-0.0022,0.0011,0.0002,-0.008,-0.034,-0.097
1701528868.085,19.609,19.609,-19.609,-0.0028,0.0016,0.012400000000000001,-0.011,-0.028,-0.1
1701528868.125,19.609,19.609,-19.609,-0.0009000000000000001,0.0029000000000000002,0.0071,-0.013000000000000001,-0.026000000000000002,-0.095
1701528868.165,19.609,19.609,-19.609,-0.001,0.001,0.011300000000000001,-0.03,-0.043000000000000003,-0.094
1701528868.205,19.609,19.609,-19.609,-0.0012000000000000001,0.00030000000000000003,0.0079,0.004,-0.038,-0.10200000000000001
1701528868.245,19.609,19.609,-19.609,-0.0011,0.001,0.0002,-0.007,-0.038,-0.1
1701528868.285,19.609,19.609,-19.609,-0.0017000000000000001,0.0,0.0071,-0.01,-0.029,-0.098
1701528868.325,19.609,19.609,-19.609,-0.0021000000000000003,0.0017000000000000001,-0.0007,-0.008,-0.016,-0.1
1701528868.365,19.609,19.609,-19.609,-0.0017000000000000001,0.0006000000000000001,0.0092,-0.002,-0.041,-0.109
1701528868.405,19.609,19.609,-19.609,-0.0004,0.0006000000000000001,0.0078000000000000005,-0.005,-0.036000000000000004,-0.096
1701528868.445,19.609,19.609,-19.609,-0.001,0.0017000000000000001,0.006900000000000001,0.003,-0.051000000000000004,-0.10300000000000001
1701528868.485,19.609,19.609,-19.609,-0.0034000000000000002,0.002,0.0025,-0.008,-0.046,-0.115
1701528868.525,19.609,19.609,-19.609,-0.0013000000000000002,0.0006000000000000001,0.0026000000000000003,0.001,-0.044,-0.097
1701528868.565,19.609,19.609,-19.609,0.0,0.0006000000000000001,0.0046,0.002,-0.039,-0.101
1701528868.605,19.609,19.609,-19.609,0.0012000000000000001,-0.00030000000000000003,0.0077,-0.003,-0.045,-0.095
1701528868.645,19.609,19.609,-19.609,-0.0007,0.0025,0.0092,-0.002,-0.044,-0.096
1701528868.685,19.609,19.609,-19.609,-0.0023,0.0014,0.004,-0.007,-0.038,-0.094
1701528868.725,19.609,19.609,-19.609,0.0,0.004,-0.0007,-0.004,-0.043000000000000003,-0.091
1701528868.765,19.609,19.609,-19.609,0.0006000000000000001,0.002,0.0034000000000000002,-0.006,-0.034,-0.088
1701528868.805,19.609,19.609,-19.609,0.0005,0.0032,0.013900000000000001,-0.009000000000000001,-0.029,-0.08700000000000001
1701528868.845,19.609,19.609,-19.609,-0.001,0.0021000000000000003,-0.0137,-0.002,-0.034,-0.088
1701528868.885,19.609,19.609,-19.609,-0.001,0.0015,0.0119,-0.009000000000000001,-0.02,-0.091
1701528868.925,19.609,19.609,-19.609,-0.0001,0.0013000000000000002,0.0043,0.002,-0.026000000000000002,-0.081
1701528868.965,19.609,19.609,-19.609,-0.0017000000000000001,0.001,0.0081,-0.012,-0.023,-0.088
1701528869.005,19.609,19.609,-19.609,-0.0015,0.00030000000000000003,-0.0007,-0.012,-0.021,-0.08700000000000001
1701528869.045,19.609,19.609,-19.609,-0.0011,0.0014,0.0063,-0.003,-0.03,-0.08
1701528869.085,19.609,19.609,-19.609,-0.0001,0.0025,0.004,0.0,-0.032,-0.097
1701528869.125,19.609,19.609,-19.609,-0.0037,0.0011,0.0068000000000000005,0.003,-0.042,-0.096
1701528869.165,19.609,19.609,-19.609,-0.0045000000000000005,0.0,0.0024000000000000002,-0.004,-0.044,-0.089
1701528869.205,19.609,19.609,-19.609,-0.0004,0.0009000000000000001,0.0092,0.002,-0.045,-0.1
1701528869.245,19.609,19.609,-19.609,-0.0006000000000000001,0.002,0.0134,0.008,-0.051000000000000004,-0.096
1701528869.2849998,19.609,19.609,-19.609,-0.0001,0.0031000000000000003,-0.0048000000000000004,0.007,-0.047,-0.088
1701528869.325,19.609,19.609,-19.609,-0.00030000000000000003,0.0022,-0.0009000000000000001,0.003,-0.046,-0.083
1701528869.365,19.609,19.609,-19.609,-0.0011,0.0033,-0.0092,-0.004,-0.035,-0.088
1701528869.405,19.609,19.609,-19.609,-0.0012000000000000001,0.0017000000000000001,-0.0134,0.0,-0.042,-0.094
1701528869.445,19.609,19.609,-19.609,-0.0015,-0.0011,-0.0103,0.0,-0.041,-0.088
1701528869.485,19.609,19.609,-19.609,0.0,0.0005,0.0361,-0.003,-0.035,-0.093
1701528869.5249999,19.609,19.609,-19.609,-0.0021000000000000003,0.0021000000000000003,0.0032,-0.004,-0.034,-0.08600000000000001
1701528869.565,19.609,19.609,-19.609,0.0019,0.0021000000000000003,0.008400000000000001,0.001,-0.036000000000000004,-0.09
1701528869.605,19.609,19.609,-19.609,-0.0029000000000000002,0.0031000000000000003,0.0074,0.0,-0.033,-0.092
1701528869.645,19.609,19.609,-19.609,-0.0036000000000000003,0.0018000000000000002,0.0012000000000000001,-0.003,-0.039,-0.094
1701528869.685,19.609,19.609,-19.609,-0.0023,0.0004,0.013600000000000001,0.003,-0.036000000000000004,-0.091
1701528869.725,19.609,19.609,-19.609,-0.0016,-0.0004,0.0061,-0.005,-0.029,-0.091
1701528869.7649999,19.609,19.609,-19.609,0.0028,0.0016,0.007,-0.001,-0.031,-0.09
1701528869.805,19.609,19.609,-19.609,0.0011,0.00030000000000000003,0.0011,-0.006,-0.031,-0.08700000000000001
1701528869.845,19.609,19.609,-19.609,-0.0023,0.0017000000000000001,0.023100000000000002,-0.004,-0.031,-0.092
1701528869.885,19.609,19.609,-19.609,0.0,0.0015,0.008400000000000001,-0.01,-0.042,-0.094
1701528869.925,19.609,19.609,-19.609,-0.001,-0.0012000000000000001,0.0059,0.006,-0.044,-0.09
1701528869.965,19.609,19.609,-19.609,-0.0014,0.0006000000000000001,0.0037,0.0,-0.045,-0.098
1701528870.0049999,19.609,19.609,-19.609,-0.0025,0.0017000000000000001,0.006900000000000001,0.0,-0.044,-0.093
1701528870.045,19.609,19.609,-19.609,0.0001,0.0009000000000000001,0.0001,-0.002,-0.034,-0.095
1701528870.085,19.609,19.609,-19.609,-0.0015,0.0006000000000000001,0.0009000000000000001,-0.015,-0.03,-0.089
1701528870.125,19.609,19.609,-19.609,0.0,0.0001,0.0097,-0.005,-0.033,-0.095
1701528870.165,19.609,19.609,-19.609,-0.0031000000000000003,-0.001,0.008400000000000001,-0.01,-0.042,-0.09
1701528870.205,19.609,19.609,-19.609,-0.0012000000000000001,0.0006000000000000001,-0.002,-0.01,-0.062,-0.1
1701528870.245,19.609,19.609,-19.609,-0.0006000000000000001,0.0005,0.0097,-0.005,-0.042,-0.095
1701528870.285,19.609,19.609,-19.609,-0.0018000000000000002,-0.0018000000000000002,0.0051,-0.005,-0.051000000000000004,-0.096
1701528870.325,19.609,19.609,-19.609,-0.0032,-0.0012000000000000001,-0.0125,-0.001,-0.04,-0.091
1701528870.365,19.609,19.609,-19.609,-0.0018000000000000002,0.0032,0.0114,0.001,-0.037,-0.099
1701528870.405,19.609,19.609,-19.609,-0.00030000000000000003,0.0004,0.014400000000000001,-0.002,-0.043000000000000003,-0.089
1701528870.445,19.609,19.609,-19.609,0.002,0.0014,-0.0068000000000000005,-0.003,-0.036000000000000004,-0.095
1701528870.485,19.609,19.609,-19.609,-0.0011,0.0009000000000000001,0.036000000000000004,-0.01,-0.031,-0.094
1701528870.525,19.609,19.609,-19.609,-0.0004,0.0033,-0.0027,-0.007,-0.03,-0.091
1701528870.565,19.609,19.609,-19.609,-0.0021000000000000003,0.0007,0.0071,-0.006,-0.031,-0.095
1701528870.605,19.609,19.609,-19.609,-0.0021000000000000003,0.0024000000000000002,0.0009000000000000001,-0.005,-0.028,-0.099
1701528870.645,19.609,19.609,-19.609,0.0006000000000000001,0.0028,0.0213,-0.013000000000000001,-0.027,-0.094
1701528870.685,19.609,19.609,-19.609,-0.0012000000000000001,0.0,0.0034000000000000002,0.0,-0.034,-0.096
1701528870.725,19.609,19.609,-19.609,-0.0011,0.0019,0.0044,-0.002,-0.035,-0.10200000000000001
1701528870.765,19.609,19.609,-19.609,-0.0007,0.0018000000000000002,0.010100000000000001,-0.006,-0.032,-0.095
1701528870.805,19.609,19.609,-19.609,-0.0029000000000000002,-0.0006000000000000001,-0.015600000000000001,-0.001,-0.041,-0.097
1701528870.845,19.609,19.609,-19.609,-0.0022,-0.0004,0.0151,0.005,-0.039,-0.10300000000000001
1701528870.885,19.609,19.609,-19.609,-0.0009000000000000001,0.0002,0.0095,0.002,-0.04,-0.10300000000000001
1701528870.925,19.609,19.609,-19.609,-0.00030000000000000003,0.0018000000000000002,-0.0021000000000000003,-0.004,-0.043000000000000003,-0.10200000000000001
1701528870.965,19.609,19.609,-19.609,-0.0018000000000000002,0.0017000000000000001,0.0159,0.0,-0.046,-0.097
1701528871.005,19.609,19.609,-19.609,0.0041,-0.0007,0.00030000000000000003,0.002,-0.04,-0.106
1701528871.045,19.609,19.609,-19.609,0.0,0.0025,0.0014,-0.003,-0.036000000000000004,-0.10400000000000001
1701528871.085,19.609,19.609,-19.609,-0.0046,0.0025,-0.0019,-0.001,-0.034,-0.097
1701528871.125,19.609,19.609,-19.609,0.0004,0.0022,0.0071,-0.007,-0.022,-0.101
1701528871.165,19.609,19.609,-19.609,-0.0028,0.0027,-0.0014,0.0,-0.025,-0.097
1701528871.205,19.609,19.609,-19.609,-0.0025,0.0014,0.0099,-0.005,-0.034,-0.101
1701528871.245,19.609,19.609,-19.609,-0.0024000000000000002,0.0012000000000000001,-0.0012000000000000001,-0.02,-0.021,-0.093
1701528871.2849998,19.609,19.609,-19.609,-0.0009000000000000001,0.0005,0.0205,-0.023,-0.03,-0.093
1701528871.325,19.609,19.609,-19.609,-0.0001,0.001,-0.0023,-0.012,-0.038,-0.10200000000000001
1701528871.365,19.609,19.609,-19.609,-0.0013000000000000002,0.0025,0.0108,-0.012,-0.042,-0.10200000000000001
1701528871.405,19.609,19.609,-19.609,-0.0031000000000000003,0.0005,0.0058000000000000005,-0.01,-0.04,-0.098
1701528871.445,19.609,19.609,-19.609,-0.0029000000000000002,0.0016,0.0063,-0.013000000000000001,-0.034,-0.107
1701528871.485,19.609,19.609,-19.609,-0.0006000000000000001,0.0,0.002,-0.007,-0.041,-0.1
1701528871.5249999,19.609,19.609,-19.609,-0.0054,0.0016,0.012100000000000001,-0.01,-0.034,-0.1
1701528871.565,19.609,19.609,-19.609,-0.0009000000000000001,0.0026000000000000003,-0.0034000000000000002,-0.007,-0.042,-0.096
1701528871.605,19.609,19.609,-19.609,-0.004,0.0016,0.006200000000000001,-0.019,-0.037,-0.093
1701528871.645,19.609,19.609,-19.609,-0.0015,0.002,0.0037,-0.018000000000000002,-0.031,-0.097
1701528871.685,19.609,19.609,-19.609,-0.00030000000000000003,0.0007,0.0137,-0.025,-0.033,-0.088
1701528871.725,19.609,19.609,-19.609,-0.0032,0.0009000000000000001,-0.0004,-0.016,-0.042,-0.098
1701528871.7649999,19.609,19.609,-19.609,-0.0009000000000000001,0.0029000000000000002,-0.0012000000000000001,-0.009000000000000001,-0.039,-0.092
1701528871.805,19.609,19.609,-19.609,-0.0021000000000000003,0.0019,0.010400000000000001,-0.01,-0.039,-0.1
1701528871.845,19.609,19.609,-19.609,-0.0019,-0.0006000000000000001,0.0112,-0.011,-0.033,-0.099
1701528871.885,19.609,19.609,-19.609,0.0012000000000000001,0.0001,-0.0028,0.0,-0.04,-0.105
1701528871.925,19.609,19.609,-19.609,0.0001,0.0007,0.0044,-0.001,-0.016,-0.10300000000000001
1701528871.965,19.609,19.609,-19.609,-0.0019,0.0039000000000000003,-0.00030000000000000003,-0.021,-0.032,-0.101
1701528872.0049999,19.609,19.609,-19.609,-0.0019,0.0007,0.0352,-0.009000000000000001,-0.03,-0.094
1701528872.045,19.609,19.609,-19.609,0.0006000000000000001,0.0012000000000000001,0.0,-0.007,-0.041,-0.1
1701528872.085,19.609,19.609,-19.609,-0.001,0.0016,0.0079,-0.001,-0.046,-0.10400000000000001
1701528872.125,19.609,19.609,-19.609,-0.0021000000000000003,0.0028,-0.0123,-0.002,-0.026000000000000002,-0.097
1701528872.165,19.609,19.609,-19.609,-0.0026000000000000003,0.0034000000000000002,0.0179,0.0,-0.036000000000000004,-0.1
1701528872.205,19.609,19.609,-19.609,-0.0005,-0.0001,0.0037,-0.002,-0.054,-0.10200000000000001
1701528872.245,19.609,19.609,-19.609,-0.0007,0.002,0.001,-0.001,-0.041,-0.095
1701528872.285,19.609,19.609,-19.609,-0.002,-0.0012000000000000001,-0.0054,-0.007,-0.041,-0.094
1701528872.325,19.609,19.609,-19.609,-0.0004,0.0014,0.0142,-0.011,-0.03,-0.096
1701528872.365,19.609,19.609,-19.609,-0.0014,0.0006000000000000001,0.0143,-0.006,-0.034,-0.088
1701528872.405,19.609,19.609,-19.609,-0.0023,0.0021000000000000003,0.0017000000000000001,0.001,-0.043000000000000003,-0.093
1701528872.445,19.609,19.609,-19.609,-0.0026000000000000003,0.0019,0.0045000000000000005,0.002,-0.032,-0.096
1701528872.485,19.609,19.609,-19.609,-0.0012000000000000001,0.0022,-0.011600000000000001,-0.004,-0.041,-0.089
1701528872.525,19.609,19.609,-19.609,-0.0006000000000000001,0.0019,0.0205,-0.004,-0.034,-0.091
1701528872.565,19.609,19.609,-19.609,0.0018000000000000002,0.004200000000000001,0.0005,-0.009000000000000001,-0.036000000000000004,-0.088
1701528872.605,19.609,19.609,-19.609,-0.003,0.0015,0.0045000000000000005,-0.001,-0.047,-0.09
1701528872.645,19.609,19.609,-19.609,-0.00030000000000000003,0.002,-0.0015,-0.001,-0.023,-0.085
1701528872.685,19.609,19.609,-19.609,-0.0016,0.0004,0.014700000000000001,-0.017,-0.019,-0.08600000000000001
1701528872.725,19.609,19.609,-19.609,-0.0023,0.0002,-0.0036000000000000003,-0.008,-0.019,-0.078
1701528872.765,19.609,19.609,-19.609,0.0014,0.0049,0.0182,0.003,-0.033,-0.08700000000000001
1701528872.805,19.609,19.609,-19.609,-0.0006000000000000001,0.0039000000000000003,0.0128,0.002,-0.027,-0.08700000000000001
1701528872.845,19.609,19.609,-19.609,-0.0035,0.0031000000000000003,0.008700000000000001,-0.007,-0.027,-0.083
1701528872.885,19.609,19.609,-19.609,-0.0018000000000000002,0.0012000000000000001,-0.0164,0.0,-0.035,-0.088
1701528872.925,19.609,19.609,-19.609,-0.0038,0.0004,0.004200000000000001,0.001,-0.044,-0.093
1701528872.965,19.609,19.609,-19.609,-0.0021000000000000003,0.0008,0.0086,0.008,-0.048,-0.093
1701528873.005,19.609,19.609,-19.609,-0.0037,-0.0015,0.0106,0.003,-0.046,-0.085
1701528873.045,19.609,19.609,-19.609,-0.0013000000000000002,0.0014,0.0036000000000000003,0.007,-0.047,-0.096
1701528873.085,19.609,19.609,-19.609,-0.0021000000000000003,0.0036000000000000003,0.009600000000000001,0.007,-0.044,-0.096
1701528873.125,19.609,19.609,-19.609,0.0013000000000000002,0.0005,0.0061,0.005,-0.044,-0.10200000000000001
1701528873.165,19.609,19.609,-19.609,-0.0018000000000000002,0.0031000000000000003,0.006500000000000001,-0.004,-0.044,-0.097
1701528873.205,19.609,19.609,-19.609,-0.0025,0.0005,0.0088,-0.007,-0.041,-0.10300000000000001
1701528873.245,19.609,19.609,-19.609,0.0009000000000000001,0.0014,0.0068000000000000005,-0.002,-0.041,-0.092
1701528873.2849998,19.609,19.609,-19.609,0.0,-0.001,0.0098,0.005,-0.036000000000000004,-0.101
1701528873.325,19.609,19.609,-19.609,-0.0015,0.0036000000000000003,0.0012000000000000001,0.002,-0.045,-0.098
1701528873.365,19.609,19.609,-19.609,-0.0023,0.0014,0.0031000000000000003,0.017,-0.074,-0.088
1701528873.405,19.609,19.609,-19.609,0.0039000000000000003,0.0031000000000000003,0.0037,0.007,-0.043000000000000003,-0.091
1701528873.445,19.609,19.609,-19.609,-0.0024000000000000002,0.0001,0.0049,-0.005,-0.043000000000000003,-0.08600000000000001
1701528873.485,19.609,19.609,-19.609,-0.001,-0.0012000000000000001,0.0073,0.003,-0.034,-0.091
1701528873.5249999,19.609,19.609,-19.609,-0.0025,0.0017000000000000001,0.008400000000000001,0.005,-0.043000000000000003,-0.1
1701528873.565,19.609,19.609,-19.609,-0.0012000000000000001,0.0028,0.002,0.001,-0.037,-0.1
1701528873.605,19.609,19.609,-19.609,-0.0023,0.0021000000000000003,0.005200000000000001,-0.004,-0.042,-0.089
1701528873.645,19.609,19.609,-19.609,-0.00030000000000000003,0.0005,0.005,0.006,-0.049,-0.1
1701528873.685,19.609,19.609,-19.609,-0.002,0.0026000000000000003,0.009300000000000001,0.002,-0.05,-0.098
1701528873.725,19.609,19.609,-19.609,-0.0035,-0.0001,0.0019,0.008,-0.051000000000000004,-0.093
1701528873.7649999,19.609,19.609,-19.609,-0.0012000000000000001,0.0008,0.0131,0.0,-0.049,-0.099
1701528873.805,19.609,19.609,-19.609,-0.002,0.0007,0.0064,0.001,-0.043000000000000003,-0.09
1701528873.845,19.609,19.609,-19.609,-0.0022,0.0012000000000000001,0.0051,-0.004,-0.038,-0.1
1701528873.885,19.609,19.609,-19.609,-0.0001,-0.0024000000000000002,0.005200000000000001,-0.003,-0.035,-0.098
1701528873.925,19.609,19.609,-19.609,-0.0001,0.0011,0.0073,-0.003,-0.044,-0.095
1701528873.965,19.609,19.609,-19.609,-0.0011,0.0023,0.007200000000000001,-0.007,-0.038,-0.094
1701528874.0049999,19.609,19.609,-19.609,-0.0013000000000000002,0.0017000000000000001,0.0054,-0.003,-0.037,-0.092
1701528874.045,19.609,19.609,-19.609,-0.0046,-0.0007,0.0043,-0.001,-0.038,-0.094
1701528874.085,19.609,19.609,-19.609,0.0,0.0023,0.006500000000000001,-0.004,-0.033,-0.09
1701528874.125,19.609,19.609,-19.609,-0.001,0.0023,0.0059,0.001,-0.038,-0.08700000000000001
1701528874.165,19.609,19.609,-19.609,-0.0014,0.0034000000000000002,0.0,-0.009000000000000001,-0.035,-0.094
1701528874.205,19.609,19.609,-19.609,-0.0005,0.0016,0.0023,-0.006,-0.036000000000000004,-0.08700000000000001
1701528874.245,19.609,19.609,-19.609,-0.0025,-0.0005,0.0131,-0.008,-0.028,-0.089
1701528874.285,19.609,19.609,-19.609,-0.0023,-0.001,0.0089,-0.008,-0.031,-0.096
1701528874.325,19.609,19.609,-19.609,-0.0018000000000000002,0.0015,0.0076,-0.014,-0.022,-0.097
1701528874.365,19.609,19.609,-19.609,-0.0022,0.0005,0.0023,-0.002,-0.045,-0.093
1701528874.405,19.609,19.609,-19.609,-0.0012000000000000001,0.0028,0.0001,-0.001,-0.038,-0.094
1701528874.445,19.609,19.609,-19.609,0.0004,-0.0007,0.006,0.004,-0.04,-0.097
1701528874.485,19.609,19.609,-19.609,-0.00030000000000000003,0.0006000000000000001,-0.0165,0.005,-0.036000000000000004,-0.094
1701528874.525,19.609,19.609,-19.609,-0.0014,0.0015,0.024200000000000003,0.004,-0.034,-0.1
1701528874.565,19.609,19.609,-19.609,-0.0028,-0.0002,0.0045000000000000005,0.0,-0.035,-0.099
1701528874.605,19.609,19.609,-19.609,-0.0002,0.00030000000000000003,0.005200000000000001,0.0,-0.039,-0.10300000000000001
1701528874.645,19.609,19.609,-19.609,-0.0018000000000000002,0.0014,0.0041,-0.002,-0.039,-0.098
1701528874.685,19.609,19.609,-19.609,0.0001,0.0027,0.0014,0.0,-0.044,-0.10300000000000001
1701528874.725,19.609,19.609,-19.609,-0.0021000000000000003,0.0011,0.0045000000000000005,0.001,-0.035,-0.10200000000000001
1701528874.765,19.609,19.609,-19.609,-0.001,0.0013000000000000002,0.01,0.001,-0.038,-0.097
1701528874.805,19.609,19.609,-19.609,-0.0019,0.0017000000000000001,0.0073,-0.002,-0.03,-0.101
1701528874.845,19.609,19.609,-19.609,0.0007,0.0007,0.0039000000000000003,-0.002,-0.038,-0.098
1701528874.885,19.609,19.609,-19.609,-0.0009000000000000001,0.0034000000000000002,-0.0023,-0.002,-0.034,-0.091
1701528874.925,19.609,19.609,-19.609,-0.001,0.0018000000000000002,0.0038,-0.01,-0.031,-0.099
1701528874.965,19.609,19.609,-19.609,-0.0017000000000000001,0.0012000000000000001,0.0073,-0.01,-0.026000000000000002,-0.093
1701528875.005,19.609,19.609,-19.609,-0.0025,0.0028,0.0031000000000000003,-0.008,-0.036000000000000004,-0.098
1701528875.045,19.609,19.609,-19.609,-0.002,0.0008,0.006200000000000001,-0.002,-0.039,-0.096
1701528875.085,19.609,19.609,-19.609,-0.002,-0.0006000000000000001,0.0081,-0.015,-0.063,-0.099
1701528875.125,19.609,19.609,-19.609,0.0002,0.0014,-0.0029000000000000002,-0.01,-0.018000000000000002,-0.095
1701528875.165,19.609,19.609,-19.609,-0.0007,0.0026000000000000003,0.025900000000000003,-0.01,-0.038,-0.101
1701528875.205,19.609,19.609,-19.609,-0.00030000000000000003,0.0027,0.0076,-0.008,-0.034,-0.094
1701528875.245,19.609,19.609,-19.609,-0.002,0.0015,0.003,-0.004,-0.041,-0.097
1701528875.2849998,19.609,19.609,-19.609,-0.0016,0.001,0.0014,-0.011,-0.027,-0.098
1701528875.325,19.609,19.609,-19.609,-0.0031000000000000003,-0.0006000000000000001,0.0175,-0.016,-0.029,-0.096
1701528875.365,19.609,19.609,-19.609,-0.001,0.0006000000000000001,0.007,-0.012,-0.032,-0.098
1701528875.405,19.609,19.609,-19.609,-0.0021000000000000003,0.00030000000000000003,-0.0112,-0.006,0.001,-0.099
1701528875.445,19.609,19.609,-19.609,-0.0005,0.0023,0.0082,-0.008,-0.04,-0.093
1701528875.485,19.609,19.609,-19.609,-0.0033,0.0019,-0.0006000000000000001,-0.006,-0.038,-0.093
1701528875.5249999,19.609,19.609,-19.609,-0.0032,0.0019,0.003,-0.001,-0.029,-0.091
1701528875.565,19.609,19.609,-19.609,-0.0022,0.0009000000000000001,0.0123,-0.01,-0.025,-0.094
1701528875.605,19.609,19.609,-19.609,0.0004,0.0009000000000000001,0.0029000000000000002,0.007,-0.032,-0.092
1701528875.645,19.609,19.609,-19.609,-0.0009000000000000001,0.0039000000000000003,-0.0038,-0.003,-0.033,-0.10200000000000001
1701528875.685,19.609,19.609,-19.609,-0.0004,0.0016,0.0182,-0.004,-0.03,-0.089
1701528875.725,19.609,19.609,-19.609,-0.0005,0.0015,0.0043,-0.002,-0.04,-0.096
1701528875.7649999,19.609,19.609,-19.609,-0.0036000000000000003,0.0011,0.0055000000000000005,-0.001,-0.038,-0.098
1701528875.805,19.609,19.609,-19.609,-0.0018000000000000002,0.0037,-0.00030000000000000003,-0.005,-0.038,-0.096
1701528875.845,19.609,19.609,-19.609,-0.006200000000000001,0.0013000000000000002,-0.006200000000000001,-0.002,-0.038,-0.094
1701528875.885,19.609,19.609,-19.609,-0.0006000000000000001,0.0008,0.0061,0.004,-0.042,-0.093
1701528875.925,19.609,19.609,-19.609,0.001,0.0004,0.0063,0.003,-0.041,-0.094
1701528875.965,19.609,19.609,-19.609,-0.0006000000000000001,0.0025,0.0123,0.004,-0.038,-0.092
1701528876.0049999,19.609,19.609,-19.609,0.0001,0.0015,0.0097,-0.001,-0.035,-0.091
1701528876.045,19.609,19.609,-19.609,-0.0031000000000000003,-0.0007,0.0046,0.005,-0.029,-0.098
1701528876.085,19.609,19.609,-19.609,-0.0028,0.002,0.0009000000000000001,0.0,-0.033,-0.095
1701528876.125,19.609,19.609,-19.609,-0.0004,0.0035,0.0036000000000000003,0.0,-0.032,-0.09
1701528876.165,19.609,19.609,-19.609,-0.0012000000000000001,0.0024000000000000002,0.0055000000000000005,-0.006,-0.038,-0.096
1701528876.205,19.609,19.609,-19.609,-0.0008,0.0001,-0.0103,0.002,-0.038,-0.09
1701528876.245,19.609,19.609,-19.609,-0.0022,0.001,0.0056,0.003,-0.041,-0.088
1701528876.285,19.609,19.609,-19.609,0.0004,0.00030000000000000003,0.0161,0.005,-0.044,-0.092
1701528876.325,19.609,19.609,-19.609,-0.0013000000000000002,0.001,0.0025,0.004,-0.044,-0.097
1701528876.365,19.609,19.609,-19.609,-0.0023,0.0013000000000000002,-0.0048000000000000004,0.008,-0.04,-0.093
1701528876.405,19.609,19.609,-19.609,0.0021000000000000003,0.0017000000000000001,-0.0015,0.0,-0.043000000000000003,-0.09
1701528876.445,19.609,19.609,-19.609,-0.001,0.0032,0.0044,-0.003,-0.039,-0.09
1701528876.485,19.609,19.609,-19.609,-0.0001,0.0034000000000000002,0.0057,-0.001,-0.041,-0.09
1701528876.525,19.609,19.609,-19.609,-0.0037,0.0007,0.007500000000000001,0.0,-0.04,-0.101
1701528876.565,19.609,19.609,-19.609,-0.0017000000000000001,0.0037,0.006,-0.003,-0.037,-0.095
1701528876.605,19.609,19.609,-19.609,-0.0014,0.003,0.0059,-0.005,-0.041,-0.08600000000000001
1701528876.645,19.609,19.609,-19.609,-0.0017000000000000001,0.0021000000000000003,0.017,-0.003,-0.041,-0.098
1701528876.685,19.609,19.609,-19.609,-0.0021000000000000003,0.0005,0.0018000000000000002,0.004,-0.043000000000000003,-0.094
1701528876.725,19.609,19.609,-19.609,-0.0006000000000000001,0.0009000000000000001,0.0083,0.0,-0.041,-0.084
1701528876.765,19.609,19.609,-19.609,0.0015,0.0026000000000000003,0.0058000000000000005,0.003,-0.034,-0.095
1701528876.805,19.609,19.609,-19.609,0.0009000000000000001,0.0004,0.0079,-0.008,-0.031,-0.094
1701528876.845,19.609,19.609,-19.609,-0.0007,0.0009000000000000001,0.001,-0.008,-0.036000000000000004,-0.08600000000000001
1701528876.885,19.609,19.609,-19.609,-0.0006000000000000001,0.0029000000000000002,-0.0063,-0.007,-0.032,-0.08700000000000001
1701528876.925,19.609,19.609,-19.609,-0.0004,-0.0008,0.0193,-0.013000000000000001,-0.02,-0.092
1701528876.965,19.609,19.609,-19.609,0.0001,0.0025,0.013000000000000001,-0.003,-0.04,-0.094
1701528877.005,19.609,19.609,-19.609,-0.0018000000000000002,0.0014,0.0021000000000000003,0.0,-0.041,-0.092
1701528877.045,19.609,19.609,-19.609,-0.0017000000000000001,0.0012000000000000001,-0.0182,-0.005,-0.039,-0.097
1701528877.085,19.609,19.609,-19.609,-0.0015,0.0011,0.0454,-0.002,-0.045,-0.08700000000000001
1701528877.125,19.609,19.609,-19.609,-0.0031000000000000003,0.0002,0.004,0.002,-0.038,-0.096
1701528877.165,19.609,19.609,-19.609,0.0002,0.0011,0.006200000000000001,-0.007,-0.036000000000000004,-0.092
1701528877.205,19.609,19.609,-19.609,-0.0031000000000000003,0.0,0.0029000000000000002,-0.01,-0.035,-0.092
1701528877.245,19.609,19.609,-19.609,-0.0016,0.0048000000000000004,0.012,0.002,-0.034,-0.099
1701528877.2849998,19.609,19.609,-19.609,-0.002,0.0,0.0015,-0.003,-0.048,-0.094
1701528877.325,19.609,19.609,-19.609,-0.0031000000000000003,0.0014,0.0112,-0.009000000000000001,-0.03,-0.093
1701528877.365,19.609,19.609,-19.609,-0.0019,0.0006000000000000001,-0.0095,-0.005,-0.034,-0.08600000000000001
1701528877.405,19.609,19.609,-19.609,-0.0045000000000000005,0.0001,0.0097,0.005,-0.043000000000000003,-0.095
1701528877.445,19.609,19.609,-19.609,-0.0021000000000000003,0.0032,0.0137,0.013000000000000001,-0.039,-0.099
1701528877.485,19.609,19.609,-19.609,-0.0017000000000000001,-0.0015,0.0029000000000000002,-0.002,-0.041,-0.092
1701528877.5249999,19.609,19.609,-19.609,-0.0001,0.0018000000000000002,0.0059,-0.006,-0.04,-0.094
1701528877.565,19.609,19.609,-19.609,-0.0016,0.002,0.0039000000000000003,-0.002,-0.035,-0.099
1701528877.605,19.609,19.609,-19.609,0.002,0.0,-0.0044,-0.007,-0.021,-0.097
1701528877.645,19.609,19.609,-19.609,-0.0025,0.0021000000000000003,0.0281,-0.005,-0.032,-0.098
1701528877.685,19.609,19.609,-19.609,-0.0016,0.001,-0.0002,-0.007,-0.035,-0.094
1701528877.725,19.609,19.609,-19.609,-0.0034000000000000002,0.0002,0.020900000000000002,-0.001,-0.036000000000000004,-0.097
1701528877.7649999,19.609,19.609,-19.609,0.0,0.0029000000000000002,0.0067,0.005,-0.038,-0.10200000000000001
1701528877.805,19.609,19.609,-19.609,0.0012000000000000001,0.0026000000000000003,-0.0056,0.002,-0.038,-0.109
1701528877.845,19.609,19.609,-19.609,-0.0021000000000000003,-0.0012000000000000001,0.0064,0.0,-0.037,-0.101
1701528877.885,19.609,19.609,-19.609,-0.0023,0.0034000000000000002,0.0045000000000000005,0.001,-0.036000000000000004,-0.099
1701528877.925,19.609,19.609,-19.609,0.00030000000000000003,0.0018000000000000002,-0.0004,-0.008,-0.032,-0.10200000000000001
1701528877.965,19.609,19.609,-19.609,0.0001,0.0016,-0.0037,0.0,-0.04,-0.1
1701528878.0049999,19.609,19.609,-19.609,-0.0031000000000000003,0.0008,0.014700000000000001,-0.004,-0.047,-0.106
1701528878.045,19.609,19.609,-19.609,-0.0018000000000000002,0.0008,-0.0217,-0.002,-0.046,-0.099
1701528878.085,19.609,19.609,-19.609,-0.0008,0.0001,0.0009000000000000001,-0.016,-0.033,-0.099
1701528878.125,19.609,19.609,-19.609,0.0014,0.0045000000000000005,0.0057,-0.009000000000000001,-0.032,-0.099
1701528878.165,19.609,19.609,-19.609,-0.0007,0.0011,0.0016,-0.005,-0.035,-0.106
1701528878.205,19.609,19.609,-19.609,-0.0032,0.0019,0.0008,-0.004,-0.028,-0.099
1701528878.245,19.609,19.609,-19.609,-0.0004,-0.0012000000000000001,0.011600000000000001,-0.004,-0.032,-0.097
1701528878.285,19.609,19.609,-19.609,-0.0007,-0.0021000000000000003,0.0064,-0.005,-0.034,-0.097
1701528878.325,19.609,19.609,-19.609,-0.00030000000000000003,0.0033,-0.0034000000000000002,-0.004,-0.029,-0.096
1701528878.365,19.609,19.609,-19.609,0.0004,0.0017000000000000001,0.0148,-0.01,-0.026000000000000002,-0.093
1701528878.405,19.609,19.609,-19.609,-0.0009000000000000001,0.0013000000000000002,0.01,-0.005,-0.035,-0.094
1701528878.445,19.609,19.609,-19.609,-0.0011,0.0,0.0028,-0.005,-0.04,-0.099
1701528878.485,19.609,19.609,-19.609,-0.0014,0.0039000000000000003,0.0005,0.0,-0.046,-0.10400000000000001
1701528878.525,19.609,19.609,-19.609,-0.0022,0.0034000000000000002,0.0151,0.0,-0.048,-0.10200000000000001
1701528878.565,19.609,19.609,-19.609,0.0,0.0009000000000000001,0.0026000000000000003,-0.02,-0.036000000000000004,-0.106
1701528878.605,19.609,19.609,-19.609,0.0,0.0014,0.003,0.001,-0.044,-0.101
1701528878.645,19.609,19.609,-19.609,-0.0021000000000000003,0.0023,0.0043,-0.008,-0.032,-0.105
1701528878.685,19.609,19.609,-19.609,-0.0007,0.0004,0.0034000000000000002,-0.01,-0.031,-0.1
1701528878.725,19.609,19.609,-19.609,-0.0006000000000000001,0.004,0.0023,-0.041,-0.028,-0.094
1701528878.765,19.609,19.609,-19.609,-0.001,0.002,-0.0018000000000000002,-0.005,-0.034,-0.106
1701528878.805,19.609,19.609,-19.609,-0.0004,0.00030000000000000003,0.009300000000000001,-0.052000000000000005,-0.035,-0.094
1701528878.845,19.609,19.609,-19.609,-0.0014,0.0026000000000000003,0.0,-0.014,-0.034,-0.092
1701528878.885,19.609,19.609,-19.609,-0.0018000000000000002,0.001,-0.0018000000000000002,-0.006,-0.035,-0.096
1701528878.925,19.609,19.609,-19.609,-0.0027,0.00030000000000000003,0.0269,0.0,-0.04,-0.10200000000000001
1701528878.965,19.609,19.609,-19.609,-0.0009000000000000001,0.0016,-0.011000000000000001,0.0,-0.042,-0.095
1701528879.005,19.609,19.609,-19.609,-0.0013000000000000002,-0.0001,0.004,0.041,-0.039,-0.095
1701528879.045,19.609,19.609,-19.609,0.0005,0.001,-0.0034000000000000002,-0.007,-0.039,-0.088
1701528879.085,19.609,19.609,-19.609,-0.0056,-0.0008,0.013300000000000001,0.0,-0.038,-0.096
1701528879.125,19.609,19.609,-19.609,-0.001,0.0026000000000000003,0.0043,0.0,-0.04,-0.1
1701528879.165,19.609,19.609,-19.609,-0.0032,0.0002,0.009000000000000001,0.005,-0.043000000000000003,-0.094
1701528879.205,19.609,19.609,-19.609,-0.0005,0.001,0.0067,0.004,-0.045,-0.094
1701528879.245,19.609,19.609,-19.609,0.00030000000000000003,-0.0002,0.0043,-0.001,-0.041,-0.093
1701528879.2849998,19.609,19.609,-19.609,-0.0006000000000000001,0.0026000000000000003,0.007200000000000001,-0.005,-0.032,-0.094
1701528879.325,19.609,19.609,-19.609,-0.0006000000000000001,0.0017000000000000001,-0.0002,0.003,-0.04,-0.094
1701528879.365,19.609,19.609,-19.609,0.0,0.0027,0.0071,-0.003,-0.034,-0.093
1701528879.405,19.609,19.609,-19.609,-0.00030000000000000003,0.0023,0.0061,-0.012,-0.019,-0.092
1701528879.445,19.609,19.609,-19.609,-0.0017000000000000001,0.0007,-0.0092,-0.009000000000000001,-0.021,-0.08700000000000001
1701528879.485,19.609,19.609,-19.609,0.0017000000000000001,0.0015,0.008400000000000001,-0.006,-0.028,-0.099
1701528879.5249999,19.609,19.609,-19.609,-0.0025,0.0004,0.0085,-0.006,-0.024,-0.093
1701528879.565,19.609,19.609,-19.609,-0.0023,-0.0004,0.0017000000000000001,-0.002,-0.032,-0.082
1701528879.605,19.609,19.609,-19.609,-0.0025,0.001,0.0076,-0.005,-0.037,-0.095
1701528879.645,19.609,19.609,-19.609,0.0017000000000000001,0.0036000000000000003,0.0012000000000000001,0.003,-0.043000000000000003,-0.098
1701528879.685,19.609,19.609,-19.609,0.0001,0.0036000000000000003,0.0175,0.008,-0.04,-0.089
1701528879.725,19.609,19.609,-19.609,0.0006000000000000001,0.0017000000000000001,0.0024000000000000002,-0.001,-0.04,-0.088
1701528879.7649999,19.609,19.609,-19.609,-0.0029000000000000002,0.0018000000000000002,0.0037,0.004,-0.046,-0.092
1701528879.805,19.609,19.609,-19.609,-0.0031000000000000003,0.00030000000000000003,-0.0122,0.008,-0.044,-0.088
1701528879.845,19.609,19.609,-19.609,-0.0016,-0.0015,0.0056,0.002,-0.044,-0.091
1701528879.885,19.609,19.609,-19.609,-0.0043,0.0,0.0035,-0.006,-0.045,-0.093
1701528879.925,19.609,19.609,-19.609,0.0014,0.0013000000000000002,0.0023,-0.006,-0.034,-0.094
1701528879.965,19.609,19.609,-19.609,-0.0018000000000000002,0.0019,-0.007200000000000001,-0.007,-0.033,-0.092
1701528880.0049999,19.609,19.609,-19.609,-0.0004,0.0018000000000000002,0.0223,0.003,-0.039,-0.094
1701528880.045,19.609,19.609,-19.609,-0.0015,0.0013000000000000002,-0.0045000000000000005,0.003,-0.041,-0.088
1701528880.085,19.609,19.609,-19.609,-0.0024000000000000002,0.0022,0.0108,0.004,-0.034,-0.092
1701528880.125,19.609,19.609,-19.609,-0.0018000000000000002,0.0023,0.0086,-0.021,-0.029,-0.092
1701528880.165,19.609,19.609,-19.609,0.0,0.0015,0.0051,-0.005,-0.025,-0.088
1701528880.205,19.609,19.609,-19.609,-0.0021000000000000003,0.0038,0.0064,-0.001,-0.036000000000000004,-0.094
1701528880.245,19.609,19.609,-19.609,0.0002,0.0018000000000000002,-0.007500000000000001,-0.003,-0.042,-0.098
1701528880.285,19.609,19.609,-19.609,-0.001,0.0004,0.0119,-0.01,-0.037,-0.094
1701528880.325,19.609,19.609,-19.609,-0.0009000000000000001,0.0014,0.0142,0.0,-0.041,-0.094
1701528880.365,19.609,19.609,-19.609,0.0015,0.002,0.008700000000000001,0.004,-0.048,-0.096
1701528880.405,19.609,19.609,-19.609,-0.0032,0.0018000000000000002,0.0051,0.001,-0.046,-0.096
1701528880.445,19.609,19.609,-19.609,-0.0007,-0.0004,0.0046,0.001,-0.049,-0.089
1701528880.485,19.609,19.609,-19.609,-0.0017000000000000001,0.0018000000000000002,0.0026000000000000003,0.001,-0.042,-0.09
1701528880.525,19.609,19.609,-19.609,-0.0012000000000000001,-0.0011,0.01,-0.006,-0.032,-0.096
1701528880.565,19.609,19.609,-19.609,-0.0004,0.0039000000000000003,0.0031000000000000003,-0.001,-0.039,-0.091
1701528880.605,19.609,19.609,-19.609,-0.0015,0.0029000000000000002,0.0011,0.0,-0.033,-0.094
1701528880.645,19.609,19.609,-19.609,-0.0009000000000000001,0.0015,0.0001,0.0,-0.04,-0.094
1701528880.685,19.609,19.609,-19.609,-0.0034000000000000002,0.0012000000000000001,0.0089,0.023,-0.038,-0.096
1701528880.725,19.609,19.609,-19.609,0.0009000000000000001,0.00030000000000000003,-0.014,0.004,-0.038,-0.097
1701528880.765,19.609,19.609,-19.609,-0.0001,-0.0006000000000000001,0.035,0.024,-0.036000000000000004,-0.092
1701528880.805,19.609,19.609,-19.609,0.0012000000000000001,0.0015,0.0026000000000000003,-0.001,-0.036000000000000004,-0.08600000000000001
1701528880.845,19.609,19.609,-19.609,-0.0001,0.0006000000000000001,0.0039000000000000003,0.005,-0.044,-0.098
1701528880.885,19.609,19.609,-19.609,-0.0008,0.0018000000000000002,0.0011,-0.011,-0.035,-0.089
1701528880.925,19.609,19.609,-19.609,-0.0012000000000000001,0.0023,0.0055000000000000005,-0.004,-0.036000000000000004,-0.08700000000000001
1701528880.965,19.609,19.609,-19.609,-0.0017000000000000001,0.0027,0.0083,-0.006,-0.035,-0.10200000000000001
1701528881.005,19.609,19.609,-19.609,-0.0024000000000000002,0.0032,0.0044,-0.005,-0.031,-0.10400000000000001
1701528881.045,19.609,19.609,-19.609,-0.0006000000000000001,0.0018000000000000002,0.0037,0.001,-0.036000000000000004,-0.099
1701528881.085,19.609,19.609,-19.609,-0.0032,0.0021000000000000003,-0.0025,0.003,-0.041,-0.098
1701528881.125,19.609,19.609,-19.609,-0.0032,0.0021000000000000003,-0.0184,0.005,-0.047,-0.106
1701528881.165,19.609,19.609,-19.609,-0.0015,0.0012000000000000001,0.0021000000000000003,0.005,-0.04,-0.098
1701528881.205,19.609,19.609,-19.609,-0.0009000000000000001,0.0012000000000000001,0.0227,0.002,-0.037,-0.101
1701528881.245,19.609,19.609,-19.609,0.0,0.0023,0.0049,0.0,-0.038,-0.10300000000000001
1701528881.2849998,19.609,19.609,-19.609,-0.0033,0.0026000000000000003,0.0089,0.002,-0.04,-0.10200000000000001
1701528881.325,19.609,19.609,-19.609,-0.0006000000000000001,0.0009000000000000001,0.0132,0.0,-0.041,-0.10300000000000001
1701528881.365,19.609,19.609,-19.609,0.0017000000000000001,0.0001,0.0128,-0.005,-0.035,-0.107
1701528881.405,19.609,19.609,-19.609,-0.00030000000000000003,0.0031000000000000003,0.0031000000000000003,-0.004,-0.04,-0.105
1701528881.445,19.609,19.609,-19.609,-0.0009000000000000001,0.0031000000000000003,0.0091,0.0,-0.035,-0.10300000000000001
1701528881.485,19.609,19.609,-19.609,0.0001,0.0015,-0.0086,-0.005,-0.034,-0.105
1701528881.5249999,19.609,19.609,-19.609,-0.001,0.0028,0.0025,0.004,-0.037,-0.101
1701528881.565,19.609,19.609,-19.609,-0.0028,0.0026000000000000003,0.0092,0.007,-0.033,-0.099
1701528881.605,19.609,19.609,-19.609,-0.0001,0.0011,0.0026000000000000003,-0.007,-0.036000000000000004,-0.1
1701528881.645,19.609,19.609,-19.609,-0.002,0.0018000000000000002,0.0142,-0.01,-0.027,-0.101
1701528881.685,19.609,19.609,-19.609,-0.0021000000000000003,0.0023,0.0005,-0.01,-0.033,-0.10300000000000001
1701528881.725,19.609,19.609,-19.609,-0.0001,0.00030000000000000003,0.007500000000000001,-0.014,-0.032,-0.108
1701528881.7649999,19.609,19.609,-19.609,-0.0029000000000000002,0.0006000000000000001,0.0008,-0.017,-0.031,-0.095
1701528881.805,19.609,19.609,-19.609,-0.0031000000000000003,0.0006000000000000001,0.002,-0.007,-0.041,-0.097
1701528881.845,19.609,19.609,-19.609,-0.0006000000000000001,0.001,0.0059,-0.005,-0.036000000000000004,-0.10200000000000001
1701528881.885,19.609,19.609,-19.609,-0.0015,0.0028,0.006,-0.003,-0.038,-0.095
1701528881.925,19.609,19.609,-19.609,-0.001,0.0025,0.005,-0.004,-0.033,-0.091
1701528881.965,19.609,19.609,-19.609,-0.0001,0.0006000000000000001,-0.0027,-0.005,-0.052000000000000005,-0.094
1701528882.0049999,19.609,19.609,-19.609,-0.0021000000000000003,0.0014,-0.016300000000000002,-0.009000000000000001,-0.035,-0.08700000000000001
1701528882.045,19.609,19.609,-19.609,-0.0028,0.0017000000000000001,0.0393,-0.016,-0.03,-0.095
1701528882.085,19.609,19.609,-19.609,-0.0024000000000000002,-0.0001,0.0034000000000000002,-0.01,-0.031,-0.089
1701528882.125,19.609,19.609,-19.609,-0.0018000000000000002,0.0008,-0.0034000000000000002,-0.008,-0.031,-0.09
1701528882.165,19.609,19.609,-19.609,0.0011,0.00030000000000000003,0.0102,-0.005,-0.024,-0.091
1701528882.205,19.609,19.609,-19.609,-0.0009000000000000001,-0.0004,0.0036000000000000003,0.002,-0.04,-0.095
1701528882.245,19.609,19.609,-19.609,-0.0007,0.0031000000000000003,0.0015,0.003,-0.039,-0.091
1701528882.285,19.609,19.609,-19.609,0.0001,-0.0012000000000000001,0.0021000000000000003,0.002,-0.008,-0.089
1701528882.325,19.609,19.609,-19.609,-0.0006000000000000001,0.002,0.00030000000000000003,-0.004,-0.034,-0.094
1701528882.365,19.609,19.609,-19.609,-0.0028,0.0,0.0119,-0.007,-0.013000000000000001,-0.085
1701528882.405,19.609,19.609,-19.609,-0.0046,0.0012000000000000001,0.0076,0.0,-0.034,-0.095
1701528882.445,19.609,19.609,-19.609,0.0001,0.0032,0.008400000000000001,-0.004,-0.033,-0.098
1701528882.485,19.609,19.609,-19.609,-0.001,-0.0007,0.0089,-0.009000000000000001,-0.036000000000000004,-0.088
1701528882.525,19.609,19.609,-19.609,-0.0021000000000000003,0.0018000000000000002,0.0,-0.001,-0.045,-0.093
1701528882.565,19.609,19.609,-19.609,-0.0009000000000000001,0.0011,-0.0047,0.004,-0.04,-0.099
1701528882.605,19.609,19.609,-19.609,-0.0018000000000000002,0.004,-0.0041,0.003,-0.041,-0.101
1701528882.645,19.609,19.609,-19.609,-0.0009000000000000001,0.0007,0.014700000000000001,-0.001,-0.04,-0.096
1701528882.685,19.609,19.609,-19.609,-0.0006000000000000001,0.00030000000000000003,0.0078000000000000005,0.003,-0.04,-0.096
1701528882.725,19.609,19.609,-19.609,0.0004,0.0,-0.0001,-0.001,-0.041,-0.094
1701528882.765,19.609,19.609,-19.609,-0.001,0.0021000000000000003,0.0102,0.0,-0.045,-0.093
1701528882.805,19.609,19.609,-19.609,-0.0009000000000000001,0.0019,-0.0053,-0.007,-0.035,-0.097
1701528882.845,19.609,19.609,-19.609,0.0038,0.00030000000000000003,0.013300000000000001,-0.003,-0.036000000000000004,-0.094
1701528882.885,19.609,19.609,-19.609,0.0012000000000000001,0.0001,0.0083,-0.007,-0.038,-0.092
1701528882.925,19.609,19.609,-19.609,-0.0001,0.0023,0.0029000000000000002,0.001,-0.033,-0.095
1701528882.965,19.609,19.609,-19.609,0.001,0.0025,0.006200000000000001,-0.001,-0.032,-0.096
1701528883.005,19.609,19.609,-19.609,0.00030000000000000003,0.0006000000000000001,0.0012000000000000001,-0.002,-0.035,-0.09
1701528883.045,19.609,19.609,-19.609,0.0012000000000000001,-0.00030000000000000003,0.01,0.0,-0.041,-0.094
1701528883.085,19.609,19.609,-19.609,-0.0025,0.00030000000000000003,0.0029000000000000002,-0.004,-0.03,-0.09
1701528883.125,19.609,19.609,-19.609,-0.002,0.0021000000000000003,0.0188,-0.005,-0.027,-0.085
1701528883.165,19.609,19.609,-19.609,-0.0012000000000000001,-0.0006000000000000001,0.0064,-0.005,-0.034,-0.085
1701528883.205,19.609,19.609,-19.609,-0.0015,0.0009000000000000001,-0.013900000000000001,-0.005,-0.034,-0.097
1701528883.245,19.609,19.609,-19.609,-0.0004,-0.0008,-0.0204,-0.007,-0.033,-0.094
1701528883.2849998,19.609,19.609,-19.609,-0.0021000000000000003,-0.0021000000000000003,0.0073,-0.007,-0.043000000000000003,-0.098
1701528883.325,19.609,19.609,-19.609,-0.001,0.0035,0.0037,-0.004,-0.049,-0.1
1701528883.365,19.609,19.609,-19.609,-0.0025,0.004,-0.0029000000000000002,-0.002,-0.038,-0.097
1701528883.405,19.609,19.609,-19.609,-0.002,0.0014,0.0425,0.001,-0.043000000000000003,-0.09
1701528883.445,19.609,19.609,-19.609,-0.0004,0.0034000000000000002,-0.0004,0.003,-0.04,-0.099
1701528883.485,19.609,19.609,-19.609,-0.0014,0.0044,-0.0006000000000000001,-0.001,-0.042,-0.094
1701528883.5249999,19.609,19.609,-19.609,-0.0004,0.001,0.005,-0.008,-0.039,-0.095
1701528883.565,19.609,19.609,-19.609,-0.0005,0.002,0.0039000000000000003,-0.003,-0.035,-0.096
1701528883.605,19.609,19.609,-19.609,-0.0017000000000000001,0.0004,-0.0018000000000000002,-0.007,-0.038,-0.096
1701528883.645,19.609,19.609,-19.609,-0.0026000000000000003,0.0015,0.010400000000000001,-0.002,-0.04,-0.08600000000000001
1701528883.685,19.609,19.609,-19.609,-0.0012000000000000001,0.0007,0.0021000000000000003,-0.005,-0.034,-0.093
1701528883.725,19.609,19.609,-19.609,-0.002,0.0014,0.0119,-0.01,-0.035,-0.1
1701528883.7649999,19.609,19.609,-19.609,-0.0001,0.001,0.0043,-0.004,-0.03,-0.089
1701528883.805,19.609,19.609,-19.609,0.00030000000000000003,0.0031000000000000003,0.004200000000000001,-0.028,-0.035,-0.089
1701528883.845,19.609,19.609,-19.609,-0.00030000000000000003,0.0,0.0095,-0.011,-0.033,-0.091
1701528883.885,19.609,19.609,-19.609,-0.0009000000000000001,0.0022,0.0115,-0.005,-0.021,-0.08700000000000001
1701528883.925,19.609,19.609,-19.609,-0.0016,0.0014,0.007500000000000001,-0.004,-0.029,-0.09
1701528883.965,19.609,19.609,-19.609,-0.0002,0.0029000000000000002,0.0092,0.012,-0.021,-0.098
1701528884.0049999,19.609,19.609,-19.609,-0.0001,0.0018000000000000002,0.0058000000000000005,-0.007,-0.024,-0.097
1701528884.045,19.609,19.609,-19.609,-0.0004,0.0015,0.0073,0.0,-0.04,-0.098
1701528884.085,19.609,19.609,-19.609,-0.0004,0.0007,0.0017000000000000001,0.0,-0.041,-0.098
1701528884.125,19.609,19.609,-19.609,-0.0015,0.0009000000000000001,0.006,0.006,-0.054,-0.095
1701528884.165,19.609,19.609,-19.609,0.0006000000000000001,0.0032,0.0023,-0.003,-0.046,-0.101
1701528884.205,19.609,19.609,-19.609,0.0002,0.0012000000000000001,-0.0027,-0.005,-0.069,-0.1
1701528884.245,19.609,19.609,-19.609,-0.0014,0.0012000000000000001,0.0239,-0.007,-0.029,-0.097
1701528884.285,19.609,19.609,-19.609,-0.00030000000000000003,0.0019,0.0032,-0.006,-0.039,-0.10300000000000001
1701528884.325,19.609,19.609,-19.609,-0.0006000000000000001,0.0025,0.0026000000000000003,-0.003,-0.038,-0.101
1701528884.365,19.609,19.609,-19.609,-0.0027,0.0015,0.0068000000000000005,0.003,-0.039,-0.098
1701528884.405,19.609,19.609,-19.609,-0.0014,-0.00030000000000000003,0.01,0.001,-0.036000000000000004,-0.106
1701528884.445,19.609,19.609,-19.609,-0.001,0.001,0.0064,0.0,-0.038,-0.093
1701528884.485,19.609,19.609,-19.609,-0.0007,0.0012000000000000001,-0.0043,-0.001,-0.043000000000000003,-0.10300000000000001
1701528884.525,19.609,19.609,-19.609,-0.0032,0.0019,0.035,0.006,-0.041,-0.097
1701528884.565,19.609,19.609,-19.609,-0.001,-0.0001,0.0048000000000000004,-0.003,-0.041,-0.10300000000000001
1701528884.605,19.609,19.609,-19.609,-0.002,0.0025,0.0083,-0.011,-0.033,-0.093
1701528884.645,19.609,19.609,-19.609,-0.001,0.0016,0.0015,-0.009000000000000001,-0.028,-0.099
1701528884.685,19.609,19.609,-19.609,-0.0012000000000000001,-0.0021000000000000003,0.0126,-0.013000000000000001,-0.037,-0.109
1701528884.725,19.609,19.609,-19.609,-0.0035,0.0023,0.0017000000000000001,-0.007,-0.04,-0.10200000000000001
1701528884.765,19.609,19.609,-19.609,-0.0008,0.001,0.0056,-0.007,-0.047,-0.10200000000000001
1701528884.805,19.609,19.609,-19.609,-0.0026000000000000003,0.0048000000000000004,0.004,-0.003,-0.045,-0.101
1701528884.845,19.609,19.609,-19.609,0.00030000000000000003,0.0032,0.0049,0.003,-0.041,-0.108
1701528884.885,19.609,19.609,-19.609,-0.0025,0.0005,-0.0085,0.0,-0.043000000000000003,-0.098
1701528884.925,19.609,19.609,-19.609,-0.0017000000000000001,-0.0007,-0.0176,-0.006,-0.037,-0.099
1701528884.965,19.609,19.609,-19.609,-0.0004,-0.00030000000000000003,0.0043,0.0,-0.038,-0.095
1701528885.005,19.609,19.609,-19.609,-0.0009000000000000001,0.003,0.0238,-0.002,-0.036000000000000004,-0.096
1701528885.045,19.609,19.609,-19.609,-0.002,-0.0009000000000000001,0.023,-0.002,-0.035,-0.095
1701528885.085,19.609,19.609,-19.609,-0.0018000000000000002,0.00030000000000000003,0.0073,-0.003,-0.022,-0.097
1701528885.125,19.609,19.609,-19.609,-0.0031000000000000003,0.0017000000000000001,-0.0004,-0.006,-0.031,-0.093
1701528885.165,19.609,19.609,-19.609,-0.0012000000000000001,0.00030000000000000003,0.013900000000000001,-0.003,-0.033,-0.088
1701528885.205,19.609,19.609,-19.609,-0.0036000000000000003,0.0021000000000000003,0.004200000000000001,0.0,-0.031,-0.092
1701528885.245,19.609,19.609,-19.609,-0.0018000000000000002,0.0006000000000000001,0.0085,0.016,-0.034,-0.089
1701528885.2849998,19.609,19.609,-19.609,0.0,0.0017000000000000001,0.0043,0.005,-0.036000000000000004,-0.089
1701528885.325,19.609,19.609,-19.609,-0.002,0.0023,-0.0064,-0.003,-0.039,-0.082
1701528885.365,19.609,19.609,-19.609,-0.0009000000000000001,0.0022,0.0103,-0.005,-0.028,-0.09
1701528885.405,19.609,19.609,-19.609,-0.0022,0.0023,-0.0009000000000000001,-0.001,-0.044,-0.096
1701528885.445,19.609,19.609,-19.609,-0.0015,0.0027,0.024300000000000002,-0.007,-0.04,-0.10200000000000001
1701528885.485,19.609,19.609,-19.609,-0.0032,-0.002,0.0033,-0.006,-0.046,-0.096
1701528885.5249999,19.609,19.609,-19.609,-0.0028,-0.0014,0.0012000000000000001,0.003,-0.051000000000000004,-0.098
1701528885.565,19.609,19.609,-19.609,-0.0034000000000000002,0.0021000000000000003,0.0039000000000000003,0.003,-0.05,-0.10300000000000001
1701528885.605,19.609,19.609,-19.609,-0.003,0.0031000000000000003,0.0027,0.005,-0.042,-0.091
1701528885.645,19.609,19.609,-19.609,-0.003,0.002,0.009000000000000001,0.006,-0.046,-0.091
1701528885.685,19.609,19.609,-19.609,-0.0036000000000000003,-0.0004,-0.0007,-0.001,-0.039,-0.09
1701528885.725,19.609,19.609,-19.609,-0.0008,0.0018000000000000002,0.0063,-0.004,-0.04,-0.09
1701528885.7649999,19.609,19.609,-19.609,-0.0034000000000000002,0.0011,0.007200000000000001,0.001,-0.04,-0.097
1701528885.805,19.609,19.609,-19.609,0.0,-0.0004,0.0032,-0.004,-0.043000000000000003,-0.09
1701528885.845,19.609,19.609,-19.609,-0.0025,0.0023,-0.0079,-0.007,-0.049,-0.091
1701528885.885,19.609,19.609,-19.609,-0.0023,0.0011,0.0097,0.0,-0.041,-0.08600000000000001
1701528885.925,19.609,19.609,-19.609,-0.0016,0.0004,0.0097,-0.001,-0.038,-0.097
1701528885.965,19.609,19.609,-19.609,-0.0012000000000000001,0.0029000000000000002,0.0071,-0.005,-0.04,-0.094
1701528886.0049999,19.609,19.609,-19.609,-0.0031000000000000003,0.0009000000000000001,0.0048000000000000004,0.004,-0.032,-0.088
1701528886.045,19.609,19.609,-19.609,-0.0035,0.0018000000000000002,0.0061,-0.009000000000000001,-0.031,-0.091
1701528886.085,19.609,19.609,-19.609,-0.0009000000000000001,0.0033,-0.0011,-0.006,-0.034,-0.083
1701528886.125,19.609,19.609,-19.609,-0.0023,0.0013000000000000002,0.0102,-0.008,-0.035,-0.089
1701528886.165,19.609,19.609,-19.609,-0.0016,0.0028,0.0032,-0.002,-0.038,-0.096
1701528886.205,19.609,19.609,-19.609,-0.0004,0.0014,0.0063,-0.008,-0.038,-0.098
1701528886.245,19.609,19.609,-19.609,-0.0006000000000000001,0.0028,0.0125,-0.004,-0.032,-0.091
1701528886.285,19.609,19.609,-19.609,0.0009000000000000001,0.0014,0.0033,0.004,-0.041,-0.094
1701528886.325,19.609,19.609,-19.609,-0.0025,0.0001,0.0061,-0.001,-0.043000000000000003,-0.093
1701528886.365,19.609,19.609,-19.609,0.0026000000000000003,0.0013000000000000002,-0.0016,0.002,-0.051000000000000004,-0.091
1701528886.405,19.609,19.609,-19.609,0.0004,0.0034000000000000002,0.008700000000000001,0.002,-0.047,-0.093
1701528886.445,19.609,19.609,-19.609,-0.0008,0.0008,0.012,0.004,-0.045,-0.10200000000000001
1701528886.485,19.609,19.609,-19.609,-0.0039000000000000003,0.0006000000000000001,0.0089,-0.004,-0.039,-0.095
1701528886.525,19.609,19.609,-19.609,0.0,0.0018000000000000002,0.0058000000000000005,-0.011,-0.034,-0.091
1701528886.565,19.609,19.609,-19.609,-0.0017000000000000001,0.004200000000000001,-0.0046,-0.007,-0.04,-0.093
1701528886.605,19.609,19.609,-19.609,-0.0007,-0.0004,0.0134,-0.007,-0.035,-0.098
1701528886.645,19.609,19.609,-19.609,-0.0036000000000000003,0.0001,0.0076,-0.003,-0.031,-0.09
1701528886.685,19.609,19.609,-19.609,-0.0022,0.0007,0.013800000000000002,-0.001,-0.029,-0.093
1701528886.725,19.609,19.609,-19.609,-0.0009000000000000001,0.0025,0.030000000000000002,-0.007,-0.029,-0.091
1701528886.765,19.609,19.609,-19.609,-0.001,0.0046,0.0095,-0.003,-0.027,-0.089
1701528886.805,19.609,19.609,-19.609,-0.001,0.00030000000000000003,-0.0028,-0.012,-0.022,-0.092
1701528886.845,19.609,19.609,-19.609,-0.0012000000000000001,0.0004,0.0048000000000000004,-0.009000000000000001,-0.024,-0.09
1701528886.885,19.609,19.609,-19.609,0.0,0.0012000000000000001,0.0092,-0.004,-0.026000000000000002,-0.097
1701528886.925,19.609,19.609,-19.609,-0.003,0.0025,0.0056,0.0,-0.033,-0.10200000000000001
1701528886.965,19.609,19.609,-19.609,-0.0022,0.0019,0.008700000000000001,-0.003,-0.035,-0.10200000000000001
1701528887.005,19.609,19.609,-19.609,-0.0009000000000000001,0.0004,-0.0035,0.0,-0.041,-0.101
1701528887.045,19.609,19.609,-19.609,-0.0017000000000000001,0.003,0.0086,0.003,-0.048,-0.106
1701528887.085,19.609,19.609,-19.609,-0.0021000000000000003,0.001,0.0108,0.009000000000000001,-0.043000000000000003,-0.105
1701528887.125,19.609,19.609,-19.609,-0.00030000000000000003,-0.0004,0.0048000000000000004,-0.013000000000000001,-0.034,-0.094
1701528887.165,19.609,19.609,-19.609,-0.0012000000000000001,0.0,0.00030000000000000003,-0.003,-0.032,-0.094
1701528887.205,19.609,19.609,-19.609,0.0015,0.0037,0.0043,-0.008,-0.026000000000000002,-0.105
1701528887.245,19.609,19.609,-19.609,0.0007,0.0006000000000000001,0.0064,0.0,-0.037,-0.10200000000000001
1701528887.2849998,19.609,19.609,-19.609,0.0002,0.002,0.0024000000000000002,-0.001,-0.041,-0.106
1701528887.325,19.609,19.609,-19.609,-0.0019,0.0004,0.0021000000000000003,-0.007,-0.039,-0.10200000000000001
1701528887.365,19.609,19.609,-19.609,-0.002,0.0029000000000000002,0.0081,0.001,-0.045,-0.10400000000000001
1701528887.405,19.609,19.609,-19.609,-0.0046,-0.0015,0.0044,0.002,-0.038,-0.105
1701528887.445,19.609,19.609,-19.609,-0.0016,0.0013000000000000002,0.0,-0.003,-0.045,-0.093
1701528887.485,19.609,19.609,-19.609,-0.003,-0.0017000000000000001,0.0102,-0.007,-0.031,-0.08700000000000001
1701528887.5249999,19.609,19.609,-19.609,-0.0004,0.0015,0.0145,-0.043000000000000003,-0.049,-0.113
1701528887.565,19.609,19.609,-19.609,0.00030000000000000003,0.001,0.004,-0.012,-0.041,-0.094
1701528887.605,19.609,19.609,-19.609,-0.0018000000000000002,0.0009000000000000001,-0.0013000000000000002,-0.038,-0.032,-0.092
1701528887.645,19.609,19.609,-19.609,0.0004,0.0023,0.0224,-0.005,-0.038,-0.098
1701528887.685,19.609,19.609,-19.609,-0.0015,0.0028,0.0031000000000000003,-0.005,-0.044,-0.10300000000000001
1701528887.725,19.609,19.609,-19.609,-0.0009000000000000001,0.0,-0.006500000000000001,0.0,-0.051000000000000004,-0.097
1701528887.7649999,19.609,19.609,-19.609,0.001,-0.0001,0.019100000000000002,-0.002,-0.048,-0.10200000000000001
1701528887.805,19.609,19.609,-19.609,-0.0002,0.0021000000000000003,0.0002,-0.003,-0.043000000000000003,-0.101
1701528887.845,19.609,19.609,-19.609,-0.0007,-0.0007,0.0002,0.002,-0.039,-0.096
1701528887.885,19.609,19.609,-19.609,-0.0001,0.0024000000000000002,0.0112,-0.004,-0.039,-0.093
1701528887.925,19.609,19.609,-19.609,-0.0019,0.002,0.0051,-0.002,-0.038,-0.094
1701528887.965,19.609,19.609,-19.609,-0.0012000000000000001,0.0026000000000000003,0.009300000000000001,-0.003,-0.036000000000000004,-0.096
1701528888.0049999,19.609,19.609,-19.609,-0.004200000000000001,0.0006000000000000001,0.0082,-0.005,-0.033,-0.1
1701528888.045,19.609,19.609,-19.609,-0.0012000000000000001,0.0014,0.007,-0.001,-0.025,-0.096
1701528888.085,19.609,19.609,-19.609,-0.0014,0.0015,-0.0024000000000000002,-0.005,-0.031,-0.08600000000000001
1701528888.125,19.609,19.609,-19.609,0.0009000000000000001,0.0024000000000000002,0.030000000000000002,-0.004,-0.026000000000000002,-0.08600000000000001
1701528888.165,19.609,19.609,-19.609,-0.0016,0.0021000000000000003,-0.0068000000000000005,-0.004,-0.024,-0.084
1701528888.205,19.609,19.609,-19.609,-0.0007,0.0017000000000000001,0.0073,0.009000000000000001,-0.031,-0.091
1701528888.245,19.609,19.609,-19.609,0.00030000000000000003,-0.0001,0.0007,0.003,-0.022,-0.08700000000000001
1701528888.285,19.609,19.609,-19.609,-0.001,0.0021000000000000003,0.0027,-0.005,-0.032,-0.08700000000000001
1701528888.325,19.609,19.609,-19.609,0.0022,0.003,0.012700000000000001,-0.003,-0.023,-0.08700000000000001
1701528888.365,19.609,19.609,-19.609,-0.0013000000000000002,0.001,-0.0036000000000000003,0.004,-0.037,-0.1
1701528888.405,19.609,19.609,-19.609,-0.0001,0.0025,0.023100000000000002,0.0,-0.042,-0.098
1701528888.445,19.609,19.609,-19.609,-0.0008,0.001,-0.012100000000000001,0.002,-0.039,-0.098
1701528888.485,19.609,19.609,-19.609,-0.0009000000000000001,0.0035,-0.0073,0.004,-0.049,-0.093
1701528888.525,19.609,19.609,-19.609,0.0,0.0007,-0.0126,0.005,-0.055,-0.099
1701528888.565,19.609,19.609,-19.609,-0.0014,0.0012000000000000001,-0.0029000000000000002,0.005,-0.052000000000000005,-0.097
1701528888.605,19.609,19.609,-19.609,-0.0032,0.0017000000000000001,0.0122,0.002,-0.039,-0.094
1701528888.645,19.609,19.609,-19.609,-0.0013000000000000002,0.0024000000000000002,-0.0048000000000000004,0.001,-0.043000000000000003,-0.091
1701528888.685,19.609,19.609,-19.609,-0.002,0.0032,0.0383,-0.003,-0.037,-0.094
1701528888.725,19.609,19.609,-19.609,0.0004,0.0029000000000000002,-0.0011,0.004,-0.047,-0.096
1701528888.765,19.609,19.609,-19.609,0.001,0.0028,0.006500000000000001,0.0,-0.038,-0.093
1701528888.805,19.609,19.609,-19.609,0.0,0.0015,0.0026000000000000003,-0.003,-0.041,-0.08700000000000001
1701528888.845,19.609,19.609,-19.609,-0.0037,0.0033,0.0145,0.003,-0.038,-0.093
1701528888.885,19.609,19.609,-19.609,-0.001,-0.0019,0.003,0.001,-0.037,-0.095
1701528888.925,19.609,19.609,-19.609,-0.0009000000000000001,-0.0015,-0.0064,-0.003,-0.037,-0.097
1701528888.965,19.609,19.609,-19.609,-0.0006000000000000001,0.0007,0.008700000000000001,-0.032,-0.03,-0.092
1701528889.005,19.609,19.609,-19.609,-0.0023,0.0048000000000000004,0.0097,-0.011,-0.031,-0.096
1701528889.045,19.609,19.609,-19.609,-0.0033,0.0007,0.0115,-0.012,-0.041,-0.089
1701528889.085,19.609,19.609,-19.609,-0.0016,0.0006000000000000001,0.0044,-0.003,-0.034,-0.091
1701528889.125,19.609,19.609,-19.609,-0.0002,0.0014,-0.004,-0.008,-0.032,-0.093
1701528889.165,19.609,19.609,-19.609,0.0038,0.0023,0.003,-0.012,-0.033,-0.096
1701528889.205,19.609,19.609,-19.609,0.0021000000000000003,0.0022,0.0047,-0.021,-0.037,-0.09
1701528889.245,19.609,19.609,-19.609,-0.0018000000000000002,-0.0007,0.0079,-0.001,-0.07100000000000001,-0.095
1701528889.2849998,19.609,19.609,-19.609,-0.0034000000000000002,0.0023,0.0085,0.0,-0.042,-0.094
1701528889.325,19.609,19.609,-19.609,-0.0019,0.0014,-0.0045000000000000005,-0.002,-0.073,-0.091
1701528889.365,19.609,19.609,-19.609,0.0007,0.0039000000000000003,0.0014,-0.006,-0.038,-0.093
1701528889.405,19.609,19.609,-19.609,-0.0026000000000000003,0.0021000000000000003,0.008,-0.006,-0.039,-0.095
1701528889.445,19.609,19.609,-19.609,-0.0001,0.0006000000000000001,-0.011000000000000001,-0.008,-0.022,-0.09
1701528889.485,19.609,19.609,-19.609,0.00030000000000000003,0.00030000000000000003,0.0344,0.0,-0.039,-0.097
1701528889.5249999,19.609,19.609,-19.609,-0.0015,0.0015,-0.0037,-0.002,-0.037,-0.1
1701528889.565,19.609,19.609,-19.609,0.0014,0.0007,-0.0027,-0.001,-0.034,-0.099
1701528889.605,19.609,19.609,-19.609,-0.0025,0.0009000000000000001,0.0187,-0.001,-0.033,-0.099
1701528889.645,19.609,19.609,-19.609,-0.0015,0.0016,0.0025,-0.004,-0.032,-0.10200000000000001
1701528889.685,19.609,19.609,-19.609,-0.0001,0.0018000000000000002,0.0086,0.002,-0.034,-0.096
1701528889.725,19.609,19.609,-19.609,-0.003,0.0002,-0.00030000000000000003,0.003,-0.037,-0.096
1701528889.7649999,19.609,19.609,-19.609,-0.0028,0.0031000000000000003,0.0143,-0.002,-0.031,-0.097
1701528889.805,19.609,19.609,-19.609,-0.004,0.00030000000000000003,-0.00030000000000000003,0.0,-0.033,-0.097
1701528889.845,19.609,19.609,-19.609,-0.0008,0.0,0.0085,0.0,-0.035,-0.105
1701528889.885,19.609,19.609,-19.609,-0.0021000000000000003,0.0018000000000000002,-0.004200000000000001,0.0,-0.039,-0.101
1701528889.925,19.609,19.609,-19.609,-0.0013000000000000002,0.0004,0.0083,0.0,-0.039,-0.098
1701528889.965,19.609,19.609,-19.609,0.0,0.0034000000000000002,0.0018000000000000002,0.001,-0.04,-0.106
1701528890.0049999,19.609,19.609,-19.609,0.0001,0.0031000000000000003,0.0057,0.0,-0.043000000000000003,-0.107
1701528890.045,19.609,19.609,-19.609,-0.0012000000000000001,0.0027,0.0059,0.004,-0.04,-0.098
1701528890.085,19.609,19.609,-19.609,0.0,0.0009000000000000001,0.0071,-0.003,-0.037,-0.099
1701528890.125,19.609,19.609,-19.609,-0.0034000000000000002,0.003,-0.0005,-0.005,-0.035,-0.10300000000000001
1701528890.165,19.609,19.609,-19.609,-0.0032,0.002,-0.0073,-0.009000000000000001,-0.028,-0.096
1701528890.205,19.609,19.609,-19.609,-0.0004,0.0017000000000000001,-0.005,-0.005,-0.035,-0.097
1701528890.245,19.609,19.609,-19.609,-0.0015,0.004,0.0023,-0.008,-0.03,-0.10400000000000001
1701528890.285,19.609,19.609,-19.609,-0.0009000000000000001,0.0016,0.0045000000000000005,-0.004,-0.039,-0.088
1701528890.325,19.609,19.609,-19.609,-0.0013000000000000002,0.0006000000000000001,0.0092,-0.002,-0.036000000000000004,-0.092
1701528890.365,19.609,19.609,-19.609,-0.0009000000000000001,0.0025,0.0064,-0.008,-0.033,-0.1
1701528890.405,19.609,19.609,-19.609,-0.0022,0.002,0.0061,-0.003,-0.043000000000000003,-0.093
1701528890.445,19.609,19.609,-19.609,-0.0012000000000000001,0.0028,-0.0032,-0.007,-0.027,-0.092
1701528890.485,19.609,19.609,-19.609,-0.001,0.0005,0.024200000000000003,-0.017,-0.026000000000000002,-0.095
1701528890.525,19.609,19.609,-19.609,-0.0022,-0.0007,-0.0089,-0.016,-0.022,-0.09
1701528890.565,19.609,19.609,-19.609,-0.001,0.0015,0.0159,-0.01,-0.031,-0.094
1701528890.605,19.609,19.609,-19.609,-0.0009000000000000001,0.0035,0.0018000000000000002,-0.012,-0.027,-0.094
1701528890.645,19.609,19.609,-19.609,-0.0004,0.0025,0.0088,0.001,-0.022,-0.091
1701528890.685,19.609,19.609,-19.609,-0.0018000000000000002,-0.00030000000000000003,0.0018000000000000002,-0.028,-0.032,-0.092
1701528890.725,19.609,19.609,-19.609,-0.001,0.0026000000000000003,0.0041,-0.002,-0.037,-0.099
1701528890.765,19.609,19.609,-19.609,0.0,0.0023,0.0083,0.001,-0.039,-0.092
1701528890.805,19.609,19.609,-19.609,-0.0021000000000000003,0.0025,0.0049,-0.002,-0.036000000000000004,-0.092
1701528890.845,19.609,19.609,-19.609,-0.0019,0.0007,0.006500000000000001,0.003,-0.041,-0.093
1701528890.885,19.609,19.609,-19.609,-0.0015,-0.00030000000000000003,0.0045000000000000005,0.0,-0.038,-0.091
1701528890.925,19.609,19.609,-19.609,0.0018000000000000002,0.0019,0.0041,0.008,-0.041,-0.096
1701528890.965,19.609,19.609,-19.609,-0.0025,0.0007,0.0053,0.006,-0.04,-0.098
1701528891.005,19.609,19.609,-19.609,-0.002,-0.00030000000000000003,0.0106,0.008,-0.044,-0.096
1701528891.045,19.609,19.609,-19.609,0.0,0.0007,0.0022,0.024,-0.045,-0.089
1701528891.085,19.609,19.609,-19.609,-0.001,0.0009000000000000001,0.003,0.007,-0.049,-0.096
1701528891.125,19.609,19.609,-19.609,-0.0018000000000000002,0.0001,0.0,0.013000000000000001,-0.05,-0.098
1701528891.165,19.609,19.609,-19.609,0.0011,0.002,0.0058000000000000005,0.018000000000000002,-0.034,-0.084
1701528891.205,19.609,19.609,-19.609,-0.001,0.0019,0.0078000000000000005,0.004,-0.039,-0.096
1701528891.245,19.609,19.609,-19.609,-0.0001,0.0021000000000000003,0.0125,0.0,-0.033,-0.09
1701528891.2849998,19.609,19.609,-19.609,0.0001,0.0011,0.0053,0.001,-0.036000000000000004,-0.08600000000000001
1701528891.325,19.609,19.609,-19.609,-0.0031000000000000003,0.001,0.006,0.004,-0.041,-0.096
1701528891.365,19.609,19.609,-19.609,-0.002,0.0025,0.006900000000000001,-0.009000000000000001,-0.043000000000000003,-0.092
1701528891.405,19.609,19.609,-19.609,-0.0016,0.0031000000000000003,-0.0048000000000000004,-0.001,-0.047,-0.1
1701528891.445,19.609,19.609,-19.609,-0.0005,0.0009000000000000001,0.015000000000000001,0.0,-0.047,-0.1
1701528891.485,19.609,19.609,-19.609,0.0006000000000000001,0.0007,0.006,-0.002,-0.046,-0.095
1701528891.5249999,19.609,19.609,-19.609,-0.0041,0.0024000000000000002,-0.0068000000000000005,-0.002,-0.05,-0.085
1701528891.565,19.609,19.609,-19.609,-0.0012000000000000001,-0.0011,0.0078000000000000005,0.001,-0.043000000000000003,-0.095
1701528891.605,19.609,19.609,-19.609,-0.0012000000000000001,0.0014,0.0032,-0.01,-0.029,-0.097
1701528891.645,19.609,19.609,-19.609,-0.001,0.0032,0.0082,-0.007,-0.038,-0.09
1701528891.685,19.609,19.609,-19.609,0.0007,0.0014,0.0109,-0.008,-0.031,-0.092
1701528891.725,19.609,19.609,-19.609,-0.0009000000000000001,0.0007,0.0026000000000000003,-0.009000000000000001,-0.027,-0.092
1701528891.7649999,19.609,19.609,-19.609,-0.0019,0.0007,0.0092,-0.001,-0.036000000000000004,-0.094
1701528891.805,19.609,19.609,-19.609,-0.0034000000000000002,0.0001,0.0076,-0.005,-0.032,-0.092
1701528891.845,19.609,19.609,-19.609,-0.0007,0.0027,0.0095,-0.008,-0.031,-0.09
1701528891.885,19.609,19.609,-19.609,-0.0004,0.0025,-0.0079,-0.006,-0.031,-0.088
1701528891.925,19.609,19.609,-19.609,0.0015,0.0006000000000000001,-0.0106,-0.004,-0.025,-0.09
1701528891.965,19.609,19.609,-19.609,0.00030000000000000003,0.0028,0.0021000000000000003,-0.009000000000000001,-0.013000000000000001,-0.092
1701528892.0049999,19.609,19.609,-19.609,-0.0004,0.0015,0.007,-0.011,-0.004,-0.085
1701528892.045,19.609,19.609,-19.609,-0.0018000000000000002,-0.0025,0.024300000000000002,-0.012,0.001,-0.08600000000000001
1701528892.085,19.609,19.609,-19.609,0.0001,-0.0009000000000000001,0.0078000000000000005,-0.021,0.022,-0.09
1701528892.125,19.609,19.609,-19.609,-0.0016,0.0012000000000000001,0.0025,-0.019,0.048,-0.10200000000000001
1701528892.165,19.609,19.609,-19.609,0.0015,0.0017000000000000001,0.0077,0.009000000000000001,0.08700000000000001,-0.101
1701528892.205,19.609,19.609,-19.609,-0.00030000000000000003,0.0017000000000000001,0.008400000000000001,0.015,0.158,-0.105
1701528892.245,19.609,19.609,-19.609,0.0002,-0.0001,0.0067,0.022,0.232,-0.11900000000000001
1701528892.285,19.609,19.609,-19.609,-0.0018000000000000002,0.0005,0.006500000000000001,0.025,0.329,-0.112
1701528892.325,19.609,19.609,-19.609,0.0,0.0019,0.0073,0.061,0.418,-0.136
1701528892.365,19.609,19.609,-19.609,-0.0002,0.0009000000000000001,-0.004,0.16,0.484,-0.11
1701528892.405,19.609,19.609,-19.609,-0.0026000000000000003,0.0018000000000000002,0.008400000000000001,0.36,0.704,0.027
1701528892.445,19.609,19.609,-19.609,-0.0033,0.0027,0.0035,0.399,0.609,0.057
1701528892.485,19.609,19.609,-19.609,-0.002,0.0021000000000000003,0.0111,0.457,0.546,-0.015
1701528892.525,19.609,19.609,-19.609,-0.0007,0.0019,0.011300000000000001,0.505,0.441,0.049
1701528892.565,19.609,19.609,-19.609,0.00030000000000000003,0.0001,0.0004,0.5760000000000001,0.317,-0.004
1701528892.605,19.609,19.609,-19.609,-0.0014,0.0009000000000000001,-0.0067,0.621,0.277,-0.021
1701528892.645,19.609,19.609,-19.609,-0.001,0.0028,0.0258,0.5650000000000001,0.246,-0.038
1701528892.685,19.609,19.609,-19.609,-0.0018000000000000002,0.0021000000000000003,0.009000000000000001,0.543,0.246,-0.047
1701528892.725,19.609,19.609,-19.609,-0.0023,0.0031000000000000003,-0.0164,0.46900000000000003,0.23,-0.042
1701528892.765,19.609,19.609,-19.609,-0.0012000000000000001,0.0017000000000000001,0.0236,0.41300000000000003,0.222,-0.011
1701528892.805,19.609,19.609,-19.609,-0.0026000000000000003,0.0037,0.0028,0.381,0.195,0.002
1701528892.845,19.609,19.609,-19.609,-0.0019,0.0029000000000000002,0.0024000000000000002,0.33,0.14400000000000002,-0.023
1701528892.885,19.609,19.609,-19.609,-0.0011,0.0024000000000000002,-0.0029000000000000002,0.322,0.159,-0.036000000000000004
1701528892.925,19.609,19.609,-19.609,0.0015,0.0029000000000000002,0.0068000000000000005,0.322,0.183,-0.057
1701528892.965,19.609,19.609,-19.609,-0.0028,-0.0001,-0.034800000000000005,0.305,0.211,-0.082
1701528893.005,19.609,19.609,-19.609,-0.00030000000000000003,-0.0001,0.050100000000000006,0.245,0.245,-0.089
1701528893.045,19.609,19.609,-19.609,-0.0039000000000000003,0.0022,-0.0134,0.214,0.229,-0.109
1701528893.085,19.609,19.609,-19.609,-0.0037,0.0009000000000000001,0.0064,0.192,0.214,-0.092
1701528893.125,19.609,19.609,-19.609,-0.0021000000000000003,0.0032,-0.0313,0.15,0.181,-0.093
1701528893.165,19.609,19.609,-19.609,0.0016,0.0034000000000000002,0.0438,0.127,0.13,-0.085
1701528893.205,19.609,19.609,-19.609,-0.0006000000000000001,0.0023,-0.0033,0.112,0.10200000000000001,-0.099
1701528893.245,19.609,19.609,-19.609,-0.0013000000000000002,0.0005,-0.007200000000000001,0.112,0.077,-0.115
1701528893.2849998,19.609,19.609,-19.609,-0.0018000000000000002,0.002,-0.0014,0.084,0.048,-0.117
1701528893.325,19.609,19.609,-19.609,-0.002,0.00030000000000000003,-0.0393,0.052000000000000005,0.042,-0.106
1701528893.365,19.609,19.609,-19.609,0.0002,0.0004,0.0572,0.067,0.027,-0.1
1701528893.405,19.609,19.609,-19.609,-0.002,0.0022,-0.024900000000000002,0.083,0.03,-0.121
1701528893.445,19.609,19.609,-19.609,-0.0008,0.0048000000000000004,0.024300000000000002,0.08,0.02,-0.117
1701528893.485,19.609,19.609,-19.609,-0.0004,0.0014,-0.029400000000000003,0.084,0.007,-0.099
1701528893.5249999,19.609,19.609,-19.609,-0.0015,0.0034000000000000002,0.0236,0.076,0.003,-0.116
1701528893.565,19.609,19.609,-19.609,-0.0016,0.0014,-0.023,0.054,-0.008,-0.109
1701528893.605,19.609,19.609,-19.609,-0.0031000000000000003,0.0006000000000000001,0.0419,0.032,-0.031,-0.09
1701528893.645,19.609,19.609,-19.609,-0.0017000000000000001,0.0025,-0.046200000000000005,0.016,-0.041,-0.08700000000000001
1701528893.685,19.609,19.609,-19.609,-0.0043,0.0025,0.0012000000000000001,0.02,-0.043000000000000003,-0.081
1701528893.725,19.609,19.609,-19.609,-0.0021000000000000003,0.004200000000000001,0.0263,0.028,-0.035,-0.079
1701528893.7649999,19.609,19.609,-19.609,-0.0024000000000000002,0.0033,-0.030100000000000002,0.029,-0.041,-0.083
1701528893.805,19.609,19.609,-19.609,-0.0033,0.0036000000000000003,0.0397,0.006,-0.029,-0.088
1701528893.845,19.609,19.609,-19.609,-0.004,0.0023,-0.0073,0.016,-0.029,-0.084
