timestamp,acc_x,acc_y,acc_z,magn_x,magn_y,magn_z,gyro_x,gyro_y,gyro_z
1701526343.272,19.609,19.609,-19.609,0.005,0.0011,0.0095,-0.01,-0.031,-0.115
1701526343.312,19.609,19.609,-19.609,-0.0006000000000000001,-0.001,0.0273,0.131,0.496,-0.023
1701526343.352,19.609,19.609,-19.609,-0.00030000000000000003,0.0012000000000000001,-0.0506,0.108,0.492,0.023
1701526343.392,19.609,19.609,-19.609,0.0001,-0.00030000000000000003,0.040600000000000004,0.021,0.41100000000000003,0.018000000000000002
1701526343.432,19.609,19.609,-19.609,-0.0068000000000000005,0.0016,-0.016,-0.014,0.436,0.001
1701526343.472,19.609,19.609,-19.609,0.0,0.0015,-0.0341,0.009000000000000001,0.459,-0.031
1701526343.512,19.609,19.609,-19.609,-0.00030000000000000003,0.0005,0.0262,0.049,0.41600000000000004,-0.093
1701526343.552,19.609,19.609,-19.609,-0.0007,-0.0006000000000000001,0.0109,0.04,0.268,-0.111
1701526343.592,19.609,19.609,-19.609,-0.0012000000000000001,0.0006000000000000001,-0.0507,0.002,0.28500000000000003,-0.078
1701526343.632,19.609,19.609,-19.609,0.0011,-0.0004,0.0408,0.003,0.28,-0.09
1701526343.672,19.609,19.609,-19.609,0.001,0.0004,-0.005,-0.017,0.242,-0.117
1701526343.712,19.609,19.609,-19.609,-0.0015,-0.0008,-0.0366,0.0,0.203,-0.12
1701526343.752,19.609,19.609,-19.609,-0.0009000000000000001,0.0028,0.0247,0.003,0.14400000000000002,-0.107
1701526343.792,19.609,19.609,-19.609,0.0012000000000000001,-0.0005,-0.055400000000000005,-0.013000000000000001,0.135,-0.08700000000000001
1701526343.832,19.609,19.609,-19.609,-0.0035,0.00030000000000000003,0.0429,-0.046,0.052000000000000005,-0.094
1701526343.872,19.609,19.609,-19.609,-0.0013000000000000002,0.0,-0.0128,-0.02,0.023,-0.106
1701526343.912,19.609,19.609,-19.609,0.00030000000000000003,-0.0012000000000000001,-0.032100000000000004,-0.059000000000000004,-0.037,-0.099
1701526343.952,19.609,19.609,-19.609,0.0,0.0021000000000000003,0.0273,-0.34700000000000003,-0.195,-0.088
1701526343.992,19.609,19.609,-19.609,0.00030000000000000003,0.0008,-0.038700000000000005,-0.732,-0.359,-0.107
1701526344.032,19.609,19.609,-19.609,-0.0004,0.0004,0.0307,-0.8230000000000001,-0.396,-0.099
1701526344.072,19.609,19.609,-19.609,-0.0009000000000000001,0.0004,-0.008400000000000001,-0.526,-0.354,-0.113
1701526344.112,19.609,19.609,-19.609,-0.0014,0.0,0.0137,-0.309,-0.374,-0.148
1701526344.152,19.609,19.609,-19.609,-0.0017000000000000001,-0.0013000000000000002,-0.049800000000000004,-0.127,-0.393,-0.194
1701526344.192,19.609,19.609,-19.609,0.0013000000000000002,0.0,0.035300000000000005,-0.055,-0.362,-0.202
1701526344.232,19.609,19.609,-19.609,0.0002,0.0,-0.053500000000000006,-0.019,-0.33,-0.20700000000000002
1701526344.272,19.609,19.609,-19.609,0.001,-0.0008,0.0587,0.004,-0.313,-0.215
1701526344.312,19.609,19.609,-19.609,0.0001,0.0006000000000000001,-0.0596,0.001,-0.263,-0.209
1701526344.352,19.609,19.609,-19.609,0.0015,-0.0018000000000000002,0.0396,-0.008,-0.211,-0.185
1701526344.392,19.609,19.609,-19.609,0.0018000000000000002,0.001,0.0125,-0.002,-0.137,-0.17300000000000001
1701526344.432,19.609,19.609,-19.609,0.0033,0.0034000000000000002,-0.0097,0.0,-0.106,-0.167
1701526344.472,19.609,19.609,-19.609,-0.0005,0.0,-0.0126,0.016,-0.084,-0.15
1701526344.5119998,19.609,19.609,-19.609,-0.0007,-0.0018000000000000002,-0.0195,0.043000000000000003,-0.035,-0.126
1701526344.552,19.609,19.609,-19.609,-0.0013000000000000002,0.0009000000000000001,-0.004200000000000001,0.10200000000000001,0.06,-0.107
1701526344.592,19.609,19.609,-19.609,-0.0006000000000000001,-0.0022,-0.0246,0.185,0.123,-0.08600000000000001
1701526344.632,19.609,19.609,-19.609,0.0014,-0.0005,0.040400000000000005,0.304,0.20400000000000001,-0.048
1701526344.672,19.609,19.609,-19.609,-0.0023,-0.0016,-0.0009000000000000001,0.364,0.264,-0.041
1701526344.712,19.609,19.609,-19.609,-0.0017000000000000001,0.0025,-0.0184,0.34600000000000003,0.291,-0.07
1701526344.7519999,19.609,19.609,-19.609,-0.002,0.0013000000000000002,-0.032100000000000004,0.292,0.307,-0.091
1701526344.792,19.609,19.609,-19.609,-0.0011,0.0008,0.0356,0.27,0.316,-0.10200000000000001
1701526344.832,19.609,19.609,-19.609,-0.0012000000000000001,-0.002,-0.0137,0.209,0.271,-0.131
1701526344.872,19.609,19.609,-19.609,-0.0001,0.0004,0.0085,0.155,0.251,-0.123
1701526344.912,19.609,19.609,-19.609,-0.0014,-0.0006000000000000001,-0.062200000000000005,0.152,0.256,-0.1
1701526344.952,19.609,19.609,-19.609,0.0017000000000000001,0.0007,0.046700000000000005,0.15,0.20800000000000002,-0.07
1701526344.9919999,19.609,19.609,-19.609,0.0017000000000000001,0.0005,-0.0224,0.117,0.182,-0.07200000000000001
1701526345.032,19.609,19.609,-19.609,0.0015,0.0008,0.0189,0.036000000000000004,0.125,-0.078
1701526345.072,19.609,19.609,-19.609,0.0,-0.0008,-0.038,-0.01,0.095,-0.07
1701526345.112,19.609,19.609,-19.609,0.0007,0.0015,0.0177,-0.092,0.069,-0.101
1701526345.152,19.609,19.609,-19.609,0.0004,0.0018000000000000002,0.0199,-0.094,0.031,-0.11
1701526345.192,19.609,19.609,-19.609,-0.0016,0.0009000000000000001,-0.031100000000000003,-0.063,0.039,-0.106
1701526345.2319999,19.609,19.609,-19.609,-0.001,0.0,0.0051,-0.01,0.069,-0.115
1701526345.272,19.609,19.609,-19.609,-0.0008,-0.0006000000000000001,-0.0488,0.033,0.054,-0.10400000000000001
1701526345.312,19.609,19.609,-19.609,-0.0025,-0.0001,0.057,0.031,0.045,-0.1
1701526345.352,19.609,19.609,-19.609,-0.0016,-0.0004,-0.019100000000000002,0.049,0.062,-0.082
1701526345.392,19.609,19.609,-19.609,0.0008,0.0,0.006,0.056,0.053,-0.096
1701526345.432,19.609,19.609,-19.609,-0.0016,0.0017000000000000001,-0.0488,0.074,0.05,-0.099
1701526345.472,19.609,19.609,-19.609,0.0,-0.0021000000000000003,0.046,0.08600000000000001,0.042,-0.095
1701526345.512,19.609,19.609,-19.609,0.0012000000000000001,-0.0021000000000000003,-0.0026000000000000003,0.10200000000000001,0.015,-0.122
1701526345.552,19.609,19.609,-19.609,-0.0011,0.0,-0.018600000000000002,0.107,0.04,-0.129
1701526345.592,19.609,19.609,-19.609,0.0015,0.0026000000000000003,0.0108,0.093,0.02,-0.128
1701526345.632,19.609,19.609,-19.609,-0.004200000000000001,-0.0002,0.0048000000000000004,0.098,0.006,-0.122
1701526345.672,19.609,19.609,-19.609,0.0006000000000000001,0.00030000000000000003,-0.049800000000000004,0.091,0.005,-0.115
1701526345.712,19.609,19.609,-19.609,0.002,0.001,0.037200000000000004,0.101,0.001,-0.108
1701526345.752,19.609,19.609,-19.609,-0.0005,0.0005,-0.033600000000000005,0.083,-0.004,-0.11
1701526345.792,19.609,19.609,-19.609,-0.001,0.00030000000000000003,0.0291,0.043000000000000003,-0.014,-0.098
1701526345.832,19.609,19.609,-19.609,0.0005,0.0013000000000000002,-0.0238,0.041,-0.023,-0.084
1701526345.872,19.609,19.609,-19.609,0.0015,0.0015,-0.052700000000000004,0.033,-0.023,-0.098
1701526345.912,19.609,19.609,-19.609,-0.0014,-0.0014,0.0623,0.06,-0.019,-0.101
1701526345.952,19.609,19.609,-19.609,0.0006000000000000001,-0.0022,-0.0296,0.095,0.0,-0.11
1701526345.992,19.609,19.609,-19.609,-0.0012000000000000001,0.0004,0.0155,0.091,0.015,-0.116
1701526346.032,19.609,19.609,-19.609,0.0016,-0.0007,0.008400000000000001,0.06,0.008,-0.121
1701526346.072,19.609,19.609,-19.609,-0.001,0.002,-0.057100000000000005,0.016,0.011,-0.10300000000000001
1701526346.112,19.609,19.609,-19.609,0.001,0.0023,0.0443,0.029,-0.005,-0.091
1701526346.152,19.609,19.609,-19.609,0.00030000000000000003,-0.0031000000000000003,-0.0083,0.11,0.005,-0.093
1701526346.192,19.609,19.609,-19.609,0.0009000000000000001,0.0013000000000000002,0.0028,0.317,0.077,-0.132
1701526346.232,19.609,19.609,-19.609,0.0009000000000000001,0.0005,-0.014,0.291,0.093,-0.166
1701526346.272,19.609,19.609,-19.609,-0.0022,0.0007,0.026600000000000002,0.128,0.077,-0.17300000000000001
1701526346.312,19.609,19.609,-19.609,-0.0017000000000000001,-0.0004,-0.0297,0.063,0.046,-0.148
1701526346.352,19.609,19.609,-19.609,-0.0005,-0.0025,-0.0008,-0.011,0.011,-0.12
1701526346.392,19.609,19.609,-19.609,0.0041,0.0031000000000000003,0.0032,-0.028,-0.006,-0.113
1701526346.432,19.609,19.609,-19.609,-0.0024000000000000002,-0.0002,0.0128,-0.025,-0.015,-0.115
1701526346.472,19.609,19.609,-19.609,0.0006000000000000001,0.0006000000000000001,-0.0126,-0.038,-0.027,-0.122
1701526346.5119998,19.609,19.609,-19.609,-0.0013000000000000002,-0.0007,-0.0333,-0.035,-0.013000000000000001,-0.138
1701526346.552,19.609,19.609,-19.609,-0.0007,0.0005,0.039400000000000004,-0.027,-0.004,-0.125
1701526346.592,19.609,19.609,-19.609,-0.0014,-0.0007,-0.0504,-0.014,0.017,-0.10200000000000001
1701526346.632,19.609,19.609,-19.609,0.0004,0.0006000000000000001,0.0485,0.008,0.009000000000000001,-0.1
1701526346.672,19.609,19.609,-19.609,-0.0009000000000000001,0.0002,-0.0211,-0.002,-0.007,-0.09
1701526346.712,19.609,19.609,-19.609,0.0015,0.0021000000000000003,0.0123,-0.021,-0.01,-0.088
1701526346.7519999,19.609,19.609,-19.609,0.0011,0.0023,-0.0006000000000000001,-0.006,-0.002,-0.093
1701526346.792,19.609,19.609,-19.609,0.0012000000000000001,-0.0009000000000000001,-0.0405,0.001,-0.022,-0.107
1701526346.832,19.609,19.609,-19.609,0.0001,0.0014,0.0341,-0.015,-0.022,-0.089
1701526346.872,19.609,19.609,-19.609,-0.001,-0.0008,-0.045200000000000004,-0.022,-0.023,-0.098
1701526346.912,19.609,19.609,-19.609,0.0016,-0.0006000000000000001,0.045200000000000004,-0.052000000000000005,-0.038,-0.10400000000000001
1701526346.952,19.609,19.609,-19.609,0.0037,0.0004,-0.0258,-0.054,-0.044,-0.096
1701526346.9919999,19.609,19.609,-19.609,0.0014,-0.0002,0.0148,-0.037,-0.04,-0.095
1701526347.032,19.609,19.609,-19.609,-0.0007,0.0018000000000000002,-0.0117,-0.017,-0.053,-0.106
1701526347.072,19.609,19.609,-19.609,0.0005,-0.0001,-0.0056,-0.009000000000000001,-0.047,-0.116
1701526347.112,19.609,19.609,-19.609,-0.0025,0.0,-0.018000000000000002,-0.011,-0.048,-0.117
1701526347.152,19.609,19.609,-19.609,0.0007,0.0018000000000000002,0.0234,-0.027,-0.04,-0.116
1701526347.192,19.609,19.609,-19.609,-0.0048000000000000004,-0.002,-0.040100000000000004,-0.025,-0.032,-0.121
1701526347.2319999,19.609,19.609,-19.609,-0.0001,0.0001,0.0335,-0.025,-0.05,-0.116
1701526347.272,19.609,19.609,-19.609,-0.0018000000000000002,0.0004,-0.007200000000000001,-0.023,-0.055,-0.11800000000000001
1701526347.312,19.609,19.609,-19.609,0.0001,-0.0006000000000000001,0.0048000000000000004,-0.016,-0.066,-0.113
1701526347.352,19.609,19.609,-19.609,-0.0009000000000000001,0.0018000000000000002,-0.0286,-0.012,-0.053,-0.101
1701526347.392,19.609,19.609,-19.609,-0.0018000000000000002,-0.0006000000000000001,-0.012700000000000001,0.002,-0.051000000000000004,-0.10400000000000001
1701526347.432,19.609,19.609,-19.609,0.0007,-0.0007,0.029400000000000003,-0.007,-0.052000000000000005,-0.109
1701526347.472,19.609,19.609,-19.609,-0.0008,0.0034000000000000002,-0.033800000000000004,-0.014,-0.051000000000000004,-0.105
1701526347.512,19.609,19.609,-19.609,-0.0014,-0.0006000000000000001,0.0194,-0.015,-0.051000000000000004,-0.10400000000000001
1701526347.552,19.609,19.609,-19.609,-0.0002,0.0006000000000000001,0.0044,-0.012,-0.052000000000000005,-0.10300000000000001
1701526347.592,19.609,19.609,-19.609,-0.005,-0.0006000000000000001,-0.031100000000000003,-0.01,-0.051000000000000004,-0.108
1701526347.632,19.609,19.609,-19.609,0.0006000000000000001,0.00030000000000000003,0.0199,-0.014,-0.05,-0.099
1701526347.672,19.609,19.609,-19.609,0.0014,-0.0001,-0.0103,-0.01,-0.042,-0.108
1701526347.712,19.609,19.609,-19.609,-0.00030000000000000003,0.0012000000000000001,-0.02,-0.008,-0.044,-0.106
1701526347.752,19.609,19.609,-19.609,0.0004,0.0002,0.0164,-0.003,-0.056,-0.105
1701526347.792,19.609,19.609,-19.609,0.0,0.0029000000000000002,-0.0511,0.001,-0.055,-0.105
1701526347.832,19.609,19.609,-19.609,-0.002,0.0,0.042800000000000005,-0.007,-0.06,-0.109
1701526347.872,19.609,19.609,-19.609,0.0029000000000000002,0.001,0.0073,-0.002,-0.055,-0.112
1701526347.912,19.609,19.609,-19.609,-0.0018000000000000002,0.0013000000000000002,-0.0307,-0.006,-0.055,-0.113
1701526347.952,19.609,19.609,-19.609,0.0009000000000000001,0.0007,-0.0088,-0.002,-0.055,-0.11800000000000001
1701526347.992,19.609,19.609,-19.609,0.0,-0.0026000000000000003,0.020900000000000002,-0.015,-0.043000000000000003,-0.12
1701526348.032,19.609,19.609,-19.609,0.0002,0.0007,-0.0155,-0.016,-0.049,-0.114
1701526348.072,19.609,19.609,-19.609,-0.0017000000000000001,-0.0019,0.0067,0.0,-0.045,-0.121
1701526348.112,19.609,19.609,-19.609,0.0018000000000000002,-0.0013000000000000002,-0.0408,-0.013000000000000001,-0.041,-0.124
1701526348.152,19.609,19.609,-19.609,-0.0001,0.0017000000000000001,-0.0584,-0.002,-0.048,-0.11
1701526348.192,19.609,19.609,-19.609,-0.0004,-0.0013000000000000002,0.0441,-0.002,-0.047,-0.113
1701526348.232,19.609,19.609,-19.609,-0.0029000000000000002,-0.0005,-0.0195,-0.01,-0.052000000000000005,-0.117
1701526348.272,19.609,19.609,-19.609,0.0007,-0.0006000000000000001,-0.0494,-0.023,-0.047,-0.11900000000000001
1701526348.312,19.609,19.609,-19.609,-0.0002,0.0001,0.06470000000000001,-0.019,-0.038,-0.11800000000000001
1701526348.352,19.609,19.609,-19.609,-0.0004,-0.0011,-0.0439,-0.01,-0.041,-0.117
1701526348.392,19.609,19.609,-19.609,0.0008,0.0001,0.045000000000000005,-0.009000000000000001,-0.04,-0.116
1701526348.432,19.609,19.609,-19.609,0.0005,-0.0009000000000000001,-0.0021000000000000003,-0.011,-0.044,-0.11
1701526348.472,19.609,19.609,-19.609,0.0,-0.0006000000000000001,-0.041600000000000005,-0.005,-0.05,-0.116
1701526348.5119998,19.609,19.609,-19.609,0.0006000000000000001,-0.0015,0.0274,-0.01,-0.037,-0.112
1701526348.552,19.609,19.609,-19.609,-0.0004,-0.0012000000000000001,0.0026000000000000003,-0.016,-0.044,-0.111
1701526348.592,19.609,19.609,-19.609,-0.0006000000000000001,-0.00030000000000000003,-0.0043,-0.004,-0.042,-0.11800000000000001
1701526348.632,19.609,19.609,-19.609,0.0,-0.0013000000000000002,0.0018000000000000002,-0.021,-0.017,-0.112
1701526348.672,19.609,19.609,-19.609,0.0004,-0.0021000000000000003,-0.0478,-0.041,-0.052000000000000005,-0.105
1701526348.712,19.609,19.609,-19.609,-0.0025,-0.0001,0.0357,-0.021,-0.045,-0.105
1701526348.7519999,19.609,19.609,-19.609,-0.0021000000000000003,-0.0012000000000000001,-0.035500000000000004,0.007,-0.043000000000000003,-0.116
1701526348.792,19.609,19.609,-19.609,0.0011,0.001,0.0211,-0.03,-0.038,-0.114
1701526348.832,19.609,19.609,-19.609,0.0007,-0.0006000000000000001,-0.0064,0.005,-0.035,-0.11
1701526348.872,19.609,19.609,-19.609,0.00030000000000000003,-0.0004,-0.0245,0.001,-0.044,-0.108
1701526348.912,19.609,19.609,-19.609,-0.0023,-0.0017000000000000001,0.0194,-0.011,-0.043000000000000003,-0.11
1701526348.952,19.609,19.609,-19.609,-0.0001,-0.001,-0.016900000000000002,-0.018000000000000002,-0.031,-0.107
1701526348.9919999,19.609,19.609,-19.609,0.0018000000000000002,0.0006000000000000001,0.0059,0.016,-0.038,-0.109
1701526349.032,19.609,19.609,-19.609,0.0,-0.0005,-0.012100000000000001,0.013000000000000001,-0.08600000000000001,-0.124
1701526349.072,19.609,19.609,-19.609,-0.00030000000000000003,-0.0022,0.014400000000000001,-0.01,-0.047,-0.116
1701526349.112,19.609,19.609,-19.609,-0.0013000000000000002,0.0015,-0.036000000000000004,-0.014,-0.029,-0.113
1701526349.152,19.609,19.609,-19.609,-0.0001,-0.00030000000000000003,0.0325,-0.007,-0.038,-0.11900000000000001
1701526349.192,19.609,19.609,-19.609,0.0018000000000000002,-0.001,-0.0219,-0.014,-0.026000000000000002,-0.107
1701526349.2319999,19.609,19.609,-19.609,-0.0006000000000000001,0.0021000000000000003,0.0082,-0.006,-0.026000000000000002,-0.10200000000000001
1701526349.272,19.609,19.609,-19.609,-0.0017000000000000001,0.0019,-0.0441,-0.005,-0.029,-0.114
1701526349.312,19.609,19.609,-19.609,0.0008,-0.0001,0.0393,-0.006,-0.048,-0.112
1701526349.352,19.609,19.609,-19.609,-0.0014,-0.0012000000000000001,0.0022,-0.004,-0.042,-0.10400000000000001
1701526349.392,19.609,19.609,-19.609,0.0007,-0.0005,-0.0482,0.008,-0.032,-0.11800000000000001
1701526349.432,19.609,19.609,-19.609,-0.0001,0.001,0.0374,0.007,-0.029,-0.11900000000000001
1701526349.472,19.609,19.609,-19.609,0.0,-0.0009000000000000001,-0.033800000000000004,0.005,-0.04,-0.117
1701526349.512,19.609,19.609,-19.609,-0.0007,-0.0008,0.0179,0.024,-0.031,-0.115
1701526349.552,19.609,19.609,-19.609,0.0002,0.00030000000000000003,0.0073,0.03,-0.059000000000000004,-0.117
1701526349.592,19.609,19.609,-19.609,-0.0009000000000000001,0.0007,-0.038,0.001,-0.061,-0.111
1701526349.632,19.609,19.609,-19.609,0.0001,-0.0007,-0.047,-0.024,-0.054,-0.106
1701526349.672,19.609,19.609,-19.609,0.0006000000000000001,0.0011,0.0658,-0.027,-0.046,-0.111
1701526349.712,19.609,19.609,-19.609,0.0014,0.0011,-0.0219,-0.035,-0.041,-0.122
1701526349.752,19.609,19.609,-19.609,-0.0032,-0.0004,0.0161,-0.029,-0.039,-0.109
1701526349.792,19.609,19.609,-19.609,-0.001,0.0009000000000000001,-0.028900000000000002,-0.021,-0.031,-0.111
1701526349.832,19.609,19.609,-19.609,0.0011,-0.0018000000000000002,0.019700000000000002,0.0,-0.04,-0.125
1701526349.872,19.609,19.609,-19.609,0.00030000000000000003,0.0,-0.0134,0.0,-0.039,-0.11900000000000001
1701526349.912,19.609,19.609,-19.609,0.0006000000000000001,0.0026000000000000003,-0.0257,0.012,-0.022,-0.11
1701526349.952,19.609,19.609,-19.609,-0.0012000000000000001,-0.003,0.042800000000000005,0.015,-0.018000000000000002,-0.121
1701526349.992,19.609,19.609,-19.609,0.0015,-0.0009000000000000001,-0.0639,-0.006,-0.037,-0.114
1701526350.032,19.609,19.609,-19.609,-0.0018000000000000002,-0.0025,0.0717,-0.01,-0.033,-0.107
1701526350.072,19.609,19.609,-19.609,0.0025,-0.0001,-0.0409,0.0,-0.035,-0.11800000000000001
1701526350.112,19.609,19.609,-19.609,0.00030000000000000003,0.0,0.0341,-0.01,-0.052000000000000005,-0.11800000000000001
1701526350.152,19.609,19.609,-19.609,-0.0007,-0.00030000000000000003,-0.0023,-0.01,-0.051000000000000004,-0.116
1701526350.192,19.609,19.609,-19.609,0.0002,0.0002,-0.0413,-0.005,-0.054,-0.11800000000000001
1701526350.232,19.609,19.609,-19.609,0.00030000000000000003,-0.0005,0.022600000000000002,-0.001,-0.054,-0.111
1701526350.272,19.609,19.609,-19.609,-0.0019,-0.0021000000000000003,-0.0246,0.006,-0.044,-0.11800000000000001
1701526350.312,19.609,19.609,-19.609,0.0,0.0002,0.0206,0.006,-0.038,-0.125
1701526350.352,19.609,19.609,-19.609,0.0011,0.0002,0.0023,-0.005,-0.046,-0.125
1701526350.392,19.609,19.609,-19.609,0.0,0.0014,0.0031000000000000003,-0.011,-0.038,-0.13
1701526350.432,19.609,19.609,-19.609,0.0005,-0.00030000000000000003,-0.0403,-0.013000000000000001,-0.034,-0.114
1701526350.472,19.609,19.609,-19.609,0.0018000000000000002,0.0008,-0.046700000000000005,-0.003,-0.029,-0.112
1701526350.5119998,19.609,19.609,-19.609,0.0004,0.0016,0.0688,-0.009000000000000001,-0.03,-0.114
1701526350.552,19.609,19.609,-19.609,-0.0011,-0.0021000000000000003,-0.0379,-0.009000000000000001,-0.034,-0.101
1701526350.592,19.609,19.609,-19.609,0.0014,0.0,0.0285,-0.008,-0.044,-0.111
1701526350.632,19.609,19.609,-19.609,-0.0026000000000000003,-0.0016,-0.0256,-0.006,-0.082,-0.11800000000000001
1701526350.672,19.609,19.609,-19.609,-0.0006000000000000001,0.0008,0.0211,-0.016,-0.055,-0.11900000000000001
1701526350.712,19.609,19.609,-19.609,0.0015,-0.0002,-0.004,-0.005,-0.037,-0.114
1701526350.7519999,19.609,19.609,-19.609,-0.0004,-0.0018000000000000002,-0.0468,-0.005,-0.047,-0.117
1701526350.792,19.609,19.609,-19.609,-0.0012000000000000001,0.0022,0.025400000000000002,-0.01,-0.044,-0.108
1701526350.832,19.609,19.609,-19.609,-0.0011,-0.0004,0.0125,-0.005,-0.052000000000000005,-0.112
1701526350.872,19.609,19.609,-19.609,-0.0009000000000000001,-0.0007,-0.0438,0.0,-0.053,-0.115
1701526350.912,19.609,19.609,-19.609,-0.0001,0.004200000000000001,0.0366,-0.009000000000000001,-0.067,-0.12
1701526350.952,19.609,19.609,-19.609,0.0005,-0.00030000000000000003,-0.0054,-0.019,-0.062,-0.11800000000000001
1701526350.9919999,19.609,19.609,-19.609,-0.0027,0.00030000000000000003,0.0032,-0.018000000000000002,-0.037,-0.128
1701526351.032,19.609,19.609,-19.609,-0.0016,-0.0007,-0.0563,-0.01,-0.026000000000000002,-0.123
1701526351.072,19.609,19.609,-19.609,0.0005,-0.00030000000000000003,0.030600000000000002,-0.008,-0.007,-0.121
1701526351.112,19.609,19.609,-19.609,-0.001,-0.0004,-0.007500000000000001,-0.004,-0.028,-0.11
1701526351.152,19.609,19.609,-19.609,-0.0019,0.0016,0.0241,-0.005,-0.046,-0.1
1701526351.192,19.609,19.609,-19.609,-0.0001,-0.00030000000000000003,-0.056,-0.003,-0.039,-0.105
1701526351.2319999,19.609,19.609,-19.609,0.0007,0.0024000000000000002,0.0391,-0.005,-0.055,-0.105
1701526351.272,19.609,19.609,-19.609,0.0002,0.00030000000000000003,0.004,0.0,-0.055,-0.109
1701526351.312,19.609,19.609,-19.609,0.0008,0.0,-0.0471,-0.01,-0.036000000000000004,-0.116
1701526351.352,19.609,19.609,-19.609,-0.0013000000000000002,0.0029000000000000002,0.0388,-0.007,-0.032,-0.099
1701526351.392,19.609,19.609,-19.609,-0.0016,-0.0034000000000000002,-0.047900000000000005,0.012,-0.053,-0.109
1701526351.432,19.609,19.609,-19.609,0.0008,0.0037,0.035,-0.005,-0.054,-0.113
1701526351.472,19.609,19.609,-19.609,-0.0007,0.0012000000000000001,-0.0112,-0.01,-0.058,-0.106
1701526351.512,19.609,19.609,-19.609,0.0,0.0014,0.0059,-0.001,-0.058,-0.099
1701526351.552,19.609,19.609,-19.609,0.001,-0.0008,0.004200000000000001,0.0,-0.054,-0.101
1701526351.592,19.609,19.609,-19.609,-0.0015,-0.0005,-0.0413,0.001,-0.042,-0.094
1701526351.632,19.609,19.609,-19.609,0.0007,-0.0017000000000000001,0.0322,0.002,-0.043000000000000003,-0.10300000000000001
1701526351.672,19.609,19.609,-19.609,0.0018000000000000002,-0.0005,-0.0253,0.003,-0.049,-0.114
1701526351.712,19.609,19.609,-19.609,-0.0012000000000000001,-0.0016,0.024900000000000002,-0.015,-0.046,-0.116
1701526351.752,19.609,19.609,-19.609,-0.0005,0.0005,-0.029900000000000003,-0.008,-0.044,-0.115
1701526351.792,19.609,19.609,-19.609,0.00030000000000000003,-0.001,0.0368,-0.008,-0.034,-0.10300000000000001
1701526351.832,19.609,19.609,-19.609,-0.0008,-0.0016,-0.048100000000000004,-0.009000000000000001,-0.027,-0.10300000000000001
1701526351.872,19.609,19.609,-19.609,-0.0009000000000000001,-0.0001,0.0335,0.0,-0.035,-0.10200000000000001
1701526351.912,19.609,19.609,-19.609,-0.0026000000000000003,-0.0008,-0.0256,0.004,-0.034,-0.10400000000000001
1701526351.952,19.609,19.609,-19.609,0.0032,0.0004,0.02,0.002,-0.038,-0.114
1701526351.992,19.609,19.609,-19.609,-0.0007,-0.0004,-0.013900000000000001,-0.002,-0.041,-0.111
1701526352.032,19.609,19.609,-19.609,0.0001,-0.0023,0.006900000000000001,-0.002,-0.043000000000000003,-0.115
1701526352.072,19.609,19.609,-19.609,-0.0014,0.0018000000000000002,-0.0438,-0.011,-0.049,-0.114
1701526352.112,19.609,19.609,-19.609,-0.0022,-0.0001,0.0221,0.0,-0.038,-0.106
1701526352.152,19.609,19.609,-19.609,-0.002,-0.0011,0.0019,0.015,-0.048,-0.115
1701526352.192,19.609,19.609,-19.609,-0.0002,0.002,-0.0257,0.019,-0.05,-0.11900000000000001
1701526352.232,19.609,19.609,-19.609,0.0001,-0.0014,0.0078000000000000005,0.0,-0.06,-0.111
1701526352.272,19.609,19.609,-19.609,0.0008,0.0,-0.0366,-0.005,-0.061,-0.11900000000000001
1701526352.312,19.609,19.609,-19.609,0.0006000000000000001,0.0,0.0366,-0.012,-0.047,-0.117
1701526352.352,19.609,19.609,-19.609,-0.0015,-0.00030000000000000003,-0.0184,-0.012,-0.018000000000000002,-0.109
1701526352.392,19.609,19.609,-19.609,0.0005,-0.0006000000000000001,0.014700000000000001,-0.034,-0.027,-0.115
1701526352.432,19.609,19.609,-19.609,-0.0006000000000000001,0.0007,-0.027800000000000002,-0.009000000000000001,-0.043000000000000003,-0.123
1701526352.472,19.609,19.609,-19.609,0.0016,0.0013000000000000002,0.0217,-0.01,-0.043000000000000003,-0.134
1701526352.5119998,19.609,19.609,-19.609,-0.001,0.0032,-0.061200000000000004,-0.012,-0.046,-0.134
1701526352.552,19.609,19.609,-19.609,-0.0004,-0.0007,0.036500000000000005,-0.001,-0.044,-0.124
1701526352.592,19.609,19.609,-19.609,0.0018000000000000002,-0.001,0.0119,0.0,-0.027,-0.121
1701526352.632,19.609,19.609,-19.609,0.0017000000000000001,-0.0004,-0.0405,0.003,-0.039,-0.115
1701526352.672,19.609,19.609,-19.609,0.0001,0.0019,0.032100000000000004,-0.006,-0.036000000000000004,-0.10200000000000001
1701526352.712,19.609,19.609,-19.609,-0.0021000000000000003,0.0033,-0.0396,-0.001,-0.04,-0.115
1701526352.7519999,19.609,19.609,-19.609,-0.0018000000000000002,0.001,-0.047400000000000005,0.01,-0.055,-0.111
1701526352.792,19.609,19.609,-19.609,0.0014,0.0025,0.0712,0.006,-0.065,-0.113
1701526352.832,19.609,19.609,-19.609,-0.0002,0.0019,-0.0497,-0.018000000000000002,-0.079,-0.093
1701526352.872,19.609,19.609,-19.609,-0.0001,-0.0011,0.0397,-0.077,-0.085,-0.075
1701526352.912,19.609,19.609,-19.609,-0.0017000000000000001,0.0014,-0.0224,-0.083,-0.079,-0.08
1701526352.952,19.609,19.609,-19.609,-0.0021000000000000003,0.0,0.0162,-0.009000000000000001,-0.047,-0.113
1701526352.9919999,19.609,19.609,-19.609,0.0005,0.0018000000000000002,-0.0529,0.017,0.004,-0.11800000000000001
1701526353.032,19.609,19.609,-19.609,-0.0032,-0.0009000000000000001,0.037700000000000004,-0.005,0.02,-0.1
1701526353.072,19.609,19.609,-19.609,-0.0007,0.0013000000000000002,0.010100000000000001,-0.012,-0.023,-0.109
1701526353.112,19.609,19.609,-19.609,-0.0017000000000000001,-0.0017000000000000001,-0.0434,-0.013000000000000001,-0.058,-0.11900000000000001
1701526353.152,19.609,19.609,-19.609,0.00030000000000000003,-0.0007,0.032,-0.015,-0.077,-0.117
1701526353.192,19.609,19.609,-19.609,0.0004,-0.0015,-0.027100000000000003,0.002,-0.092,-0.124
1701526353.2319999,19.609,19.609,-19.609,0.0013000000000000002,0.0004,0.0187,0.001,-0.074,-0.126
1701526353.272,19.609,19.609,-19.609,0.0004,0.00030000000000000003,-0.057300000000000004,-0.009000000000000001,-0.045,-0.114
1701526353.312,19.609,19.609,-19.609,0.0008,-0.0006000000000000001,0.053500000000000006,-0.006,-0.025,-0.111
1701526353.352,19.609,19.609,-19.609,-0.0012000000000000001,0.0014,-0.0396,0.003,-0.02,-0.108
1701526353.392,19.609,19.609,-19.609,-0.00030000000000000003,0.0006000000000000001,0.020900000000000002,-0.005,-0.037,-0.105
1701526353.432,19.609,19.609,-19.609,-0.001,0.0004,-0.0029000000000000002,-0.005,-0.059000000000000004,-0.10400000000000001
1701526353.472,19.609,19.609,-19.609,-0.001,0.00030000000000000003,0.003,0.005,-0.07200000000000001,-0.121
1701526353.512,19.609,19.609,-19.609,-0.0002,0.0,-0.038,-0.004,-0.069,-0.13
1701526353.552,19.609,19.609,-19.609,0.0013000000000000002,-0.001,0.038900000000000004,-0.02,-0.041,-0.107
1701526353.592,19.609,19.609,-19.609,0.0012000000000000001,-0.0006000000000000001,0.0145,-0.015,-0.013000000000000001,-0.10400000000000001
1701526353.632,19.609,19.609,-19.609,0.001,-0.0015,0.0134,0.007,-0.017,-0.112
1701526353.672,19.609,19.609,-19.609,0.0021000000000000003,-0.00030000000000000003,0.0026000000000000003,-0.004,-0.017,-0.11
1701526353.712,19.609,19.609,-19.609,-0.0031000000000000003,-0.0015,-0.0281,-0.019,-0.035,-0.107
1701526353.752,19.609,19.609,-19.609,0.0015,0.0021000000000000003,0.0448,-0.012,-0.042,-0.115
1701526353.792,19.609,19.609,-19.609,-0.00030000000000000003,-0.0008,-0.031400000000000004,-0.001,-0.056,-0.116
1701526353.832,19.609,19.609,-19.609,-0.0021000000000000003,0.0014,0.0303,-0.011,-0.062,-0.113
1701526353.872,19.609,19.609,-19.609,0.0017000000000000001,0.0029000000000000002,-0.0497,-0.008,-0.05,-0.121
1701526353.912,19.609,19.609,-19.609,-0.0001,-0.0014,0.0292,-0.015,-0.049,-0.127
1701526353.952,19.609,19.609,-19.609,-0.0014,-0.0007,0.0106,-0.021,-0.04,-0.112
1701526353.992,19.609,19.609,-19.609,-0.0015,0.002,-0.0405,-0.013000000000000001,-0.032,-0.11900000000000001
1701526354.032,19.609,19.609,-19.609,-0.0021000000000000003,-0.0014,0.0318,-0.004,-0.027,-0.115
1701526354.072,19.609,19.609,-19.609,-0.0013000000000000002,0.001,-0.0477,-0.01,-0.032,-0.116
1701526354.112,19.609,19.609,-19.609,-0.0013000000000000002,0.0023,0.0315,-0.01,-0.034,-0.116
1701526354.152,19.609,19.609,-19.609,-0.001,-0.0006000000000000001,-0.0412,-0.006,-0.036000000000000004,-0.121
1701526354.192,19.609,19.609,-19.609,-0.0012000000000000001,0.0001,0.032100000000000004,0.002,-0.048,-0.12
1701526354.232,19.609,19.609,-19.609,0.0004,-0.0026000000000000003,-0.0375,-0.009000000000000001,-0.046,-0.123
1701526354.272,19.609,19.609,-19.609,-0.0018000000000000002,0.0017000000000000001,-0.056400000000000006,-0.02,-0.038,-0.111
1701526354.312,19.609,19.609,-19.609,-0.0017000000000000001,-0.001,0.08080000000000001,-0.005,-0.015,-0.10300000000000001
1701526354.352,19.609,19.609,-19.609,0.0001,0.0004,0.0047,0.01,-0.039,-0.108
1701526354.392,19.609,19.609,-19.609,0.0001,0.0007,-0.0205,-0.001,-0.053,-0.111
1701526354.432,19.609,19.609,-19.609,0.0006000000000000001,-0.0021000000000000003,0.018600000000000002,-0.022,-0.061,-0.114
1701526354.472,19.609,19.609,-19.609,-0.0014,-0.0009000000000000001,-0.0234,-0.008,-0.049,-0.11900000000000001
1701526354.5119998,19.609,19.609,-19.609,-0.0017000000000000001,-0.0018000000000000002,0.0134,0.001,-0.052000000000000005,-0.11
1701526354.552,19.609,19.609,-19.609,-0.0023,-0.0001,-0.002,-0.01,-0.027,-0.099
1701526354.592,19.609,19.609,-19.609,-0.0012000000000000001,-0.002,-0.0563,-0.005,-0.047,-0.114
1701526354.632,19.609,19.609,-19.609,-0.0017000000000000001,0.0002,0.0257,-0.01,-0.038,-0.111
1701526354.672,19.609,19.609,-19.609,-0.0028,-0.0001,-0.045700000000000005,-0.011,-0.041,-0.107
1701526354.712,19.609,19.609,-19.609,0.0,-0.0002,0.0632,0.002,-0.044,-0.112
1701526354.7519999,19.609,19.609,-19.609,0.0008,-0.0007,-0.049100000000000005,0.001,-0.032,-0.112
1701526354.792,19.609,19.609,-19.609,0.0006000000000000001,0.0014,0.0424,-0.013000000000000001,-0.044,-0.10200000000000001
1701526354.832,19.609,19.609,-19.609,-0.0029000000000000002,0.0014,-0.0038,-0.008,-0.049,-0.115
1701526354.872,19.609,19.609,-19.609,-0.0008,-0.0026000000000000003,-0.043300000000000005,-0.001,-0.05,-0.113
1701526354.912,19.609,19.609,-19.609,0.0014,0.0001,0.0188,-0.005,-0.055,-0.112
1701526354.952,19.609,19.609,-19.609,-0.00030000000000000003,-0.0018000000000000002,0.013000000000000001,0.001,-0.05,-0.12
1701526354.9919999,19.609,19.609,-19.609,0.0012000000000000001,-0.0002,-0.0004,-0.023,-0.044,-0.115
1701526355.032,19.609,19.609,-19.609,-0.0035,0.0001,-0.0451,0.0,-0.043000000000000003,-0.105
1701526355.072,19.609,19.609,-19.609,0.0,-0.0017000000000000001,0.0322,0.017,-0.04,-0.108
1701526355.112,19.609,19.609,-19.609,0.0021000000000000003,-0.0005,-0.0437,0.002,-0.056,-0.106
1701526355.152,19.609,19.609,-19.609,-0.00030000000000000003,-0.0004,0.035500000000000004,-0.012,-0.049,-0.099
1701526355.192,19.609,19.609,-19.609,-0.0008,0.0011,-0.021,0.0,-0.043000000000000003,-0.115
1701526355.2319999,19.609,19.609,-19.609,-0.00030000000000000003,0.0004,0.0118,0.007,-0.042,-0.11900000000000001
1701526355.272,19.609,19.609,-19.609,-0.0023,0.00030000000000000003,-0.0402,-0.007,-0.052000000000000005,-0.114
1701526355.312,19.609,19.609,-19.609,-0.00030000000000000003,-0.00030000000000000003,0.031900000000000005,-0.013000000000000001,-0.052000000000000005,-0.12
1701526355.352,19.609,19.609,-19.609,-0.0017000000000000001,0.0018000000000000002,0.004200000000000001,-0.01,-0.034,-0.12
1701526355.392,19.609,19.609,-19.609,-0.0021000000000000003,0.0009000000000000001,-0.0405,-0.013000000000000001,-0.036000000000000004,-0.111
1701526355.432,19.609,19.609,-19.609,-0.0029000000000000002,0.0,0.0057,0.008,-0.03,-0.107
1701526355.472,19.609,19.609,-19.609,-0.0026000000000000003,0.0024000000000000002,0.0488,0.014,-0.037,-0.117
1701526355.512,19.609,19.609,-19.609,0.0017000000000000001,0.0014,-0.0425,-0.007,-0.043000000000000003,-0.116
1701526355.552,19.609,19.609,-19.609,0.0007,0.0018000000000000002,0.016900000000000002,-0.009000000000000001,-0.048,-0.123
1701526355.592,19.609,19.609,-19.609,0.0001,0.0017000000000000001,-0.032,0.0,-0.046,-0.117
1701526355.632,19.609,19.609,-19.609,-0.0009000000000000001,0.00030000000000000003,0.0341,-0.003,-0.048,-0.12
1701526355.672,19.609,19.609,-19.609,0.004,0.0004,-0.0034000000000000002,-0.006,-0.045,-0.12
1701526355.712,19.609,19.609,-19.609,-0.0001,0.0018000000000000002,-0.0522,-0.012,-0.045,-0.113
1701526355.752,19.609,19.609,-19.609,0.0015,0.0007,0.013000000000000001,0.0,-0.046,-0.111
1701526355.792,19.609,19.609,-19.609,-0.0026000000000000003,-0.0001,0.0264,0.006,-0.048,-0.114
1701526355.832,19.609,19.609,-19.609,-0.0038,-0.0007,-0.0534,0.0,-0.054,-0.128
1701526355.872,19.609,19.609,-19.609,-0.0009000000000000001,0.0016,0.0427,-0.004,-0.063,-0.115
1701526355.912,19.609,19.609,-19.609,-0.0032,0.001,-0.009300000000000001,-0.014,-0.062,-0.105
1701526355.952,19.609,19.609,-19.609,0.0004,-0.0007,-0.023100000000000002,-0.015,-0.061,-0.12
1701526355.992,19.609,19.609,-19.609,0.0005,-0.0009000000000000001,0.0216,-0.008,-0.063,-0.117
1701526356.032,19.609,19.609,-19.609,-0.001,-0.0004,-0.0396,0.001,-0.052000000000000005,-0.112
1701526356.072,19.609,19.609,-19.609,0.0017000000000000001,-0.0004,0.020900000000000002,0.003,-0.028,-0.112
1701526356.112,19.609,19.609,-19.609,0.0001,0.0023,-0.0227,-0.002,-0.051000000000000004,-0.115
1701526356.152,19.609,19.609,-19.609,-0.0006000000000000001,0.0001,0.0324,-0.004,-0.044,-0.116
1701526356.192,19.609,19.609,-19.609,-0.002,-0.0024000000000000002,-0.0292,0.0,-0.047,-0.117
1701526356.232,19.609,19.609,-19.609,-0.0006000000000000001,-0.0001,0.0379,-0.016,-0.053,-0.113
1701526356.272,19.609,19.609,-19.609,-0.0004,-0.0009000000000000001,-0.0324,-0.011,-0.041,-0.111
1701526356.312,19.609,19.609,-19.609,-0.001,0.0001,0.0068000000000000005,-0.015,-0.049,-0.116
1701526356.352,19.609,19.609,-19.609,0.0,-0.001,0.0032,-0.021,-0.038,-0.116
1701526356.392,19.609,19.609,-19.609,-0.0002,0.0,-0.0298,-0.005,-0.055,-0.11800000000000001
1701526356.432,19.609,19.609,-19.609,-0.0007,0.0004,-0.051500000000000004,-0.016,-0.046,-0.117
1701526356.472,19.609,19.609,-19.609,0.0,0.00030000000000000003,0.082,-0.003,-0.028,-0.105
1701526356.5119998,19.609,19.609,-19.609,-0.0007,-0.0015,-0.037700000000000004,0.0,-0.045,-0.114
1701526356.552,19.609,19.609,-19.609,-0.0004,0.0011,0.0204,0.0,-0.049,-0.112
1701526356.592,19.609,19.609,-19.609,0.0,0.0,0.004,-0.021,-0.038,-0.11
1701526356.632,19.609,19.609,-19.609,-0.0021000000000000003,-0.0019,0.0029000000000000002,-0.011,-0.009000000000000001,-0.109
1701526356.672,19.609,19.609,-19.609,-0.0018000000000000002,-0.0007,-0.0134,0.0,-0.037,-0.12
1701526356.712,19.609,19.609,-19.609,-0.0006000000000000001,-0.00030000000000000003,-0.0403,-0.022,-0.034,-0.109
1701526356.7519999,19.609,19.609,-19.609,-0.0019,0.0014,0.036500000000000005,0.0,-0.04,-0.109
1701526356.792,19.609,19.609,-19.609,0.0004,0.0013000000000000002,-0.0252,0.0,-0.044,-0.113
1701526356.832,19.609,19.609,-19.609,0.0002,0.0016,0.0151,-0.007,-0.046,-0.106
1701526356.872,19.609,19.609,-19.609,0.0001,0.0,-0.0485,-0.004,-0.05,-0.105
1701526356.912,19.609,19.609,-19.609,-0.0017000000000000001,0.0006000000000000001,0.0374,-0.008,-0.048,-0.117
1701526356.952,19.609,19.609,-19.609,-0.0018000000000000002,0.0005,0.0053,-0.003,-0.053,-0.115
1701526356.9919999,19.609,19.609,-19.609,0.00030000000000000003,0.0012000000000000001,-0.039400000000000004,-0.015,-0.045,-0.121
1701526357.032,19.609,19.609,-19.609,0.0025,-0.0007,0.0246,-0.014,-0.049,-0.125
1701526357.072,19.609,19.609,-19.609,-0.0014,-0.0009000000000000001,-0.036000000000000004,-0.014,-0.04,-0.122
1701526357.112,19.609,19.609,-19.609,-0.0009000000000000001,-0.0001,-0.0443,-0.007,-0.045,-0.122
1701526357.152,19.609,19.609,-19.609,-0.0007,-0.001,0.08360000000000001,-0.01,-0.028,-0.112
1701526357.192,19.609,19.609,-19.609,0.0001,0.0011,-0.0322,0.0,-0.033,-0.098
1701526357.2319999,19.609,19.609,-19.609,-0.001,0.0025,0.030000000000000002,0.006,-0.037,-0.117
1701526357.272,19.609,19.609,-19.609,0.0018000000000000002,0.0015,-0.010400000000000001,0.0,-0.052000000000000005,-0.122
1701526357.312,19.609,19.609,-19.609,-0.0012000000000000001,0.0012000000000000001,0.053000000000000005,-0.014,-0.055,-0.117
1701526357.352,19.609,19.609,-19.609,0.0001,-0.0013000000000000002,-0.0335,-0.01,-0.041,-0.113
1701526357.392,19.609,19.609,-19.609,-0.00030000000000000003,-0.0004,0.0233,-0.001,-0.052000000000000005,-0.121
1701526357.432,19.609,19.609,-19.609,-0.0006000000000000001,0.0,-0.041800000000000004,-0.009000000000000001,-0.05,-0.108
1701526357.472,19.609,19.609,-19.609,0.001,0.0034000000000000002,0.0328,-0.008,-0.079,-0.116
1701526357.512,19.609,19.609,-19.609,0.0026000000000000003,-0.0004,-0.0149,-0.004,-0.08,-0.116
1701526357.552,19.609,19.609,-19.609,0.0001,0.0007,-0.023100000000000002,-0.013000000000000001,-0.069,-0.112
1701526357.592,19.609,19.609,-19.609,0.00030000000000000003,-0.001,0.015300000000000001,-0.005,-0.063,-0.113
1701526357.632,19.609,19.609,-19.609,-0.0012000000000000001,-0.0007,-0.0536,0.001,-0.033,-0.11
1701526357.672,19.609,19.609,-19.609,-0.0019,-0.0009000000000000001,0.0463,-0.007,-0.003,-0.112
1701526357.712,19.609,19.609,-19.609,0.0012000000000000001,0.0008,0.006900000000000001,-0.018000000000000002,-0.02,-0.111
1701526357.752,19.609,19.609,-19.609,-0.0006000000000000001,-0.0018000000000000002,-0.0189,-0.008,-0.027,-0.108
1701526357.792,19.609,19.609,-19.609,0.0,-0.0009000000000000001,-0.0335,-0.007,-0.029,-0.10300000000000001
1701526357.832,19.609,19.609,-19.609,-0.0002,0.001,0.041100000000000005,0.006,-0.029,-0.109
1701526357.872,19.609,19.609,-19.609,-0.0002,0.0009000000000000001,0.0002,-0.013000000000000001,-0.034,-0.124
1701526357.912,19.609,19.609,-19.609,0.0004,0.0023,-0.0475,-0.015,-0.027,-0.106
1701526357.952,19.609,19.609,-19.609,0.00030000000000000003,-0.0004,0.04,-0.007,-0.015,-0.101
1701526357.992,19.609,19.609,-19.609,-0.0017000000000000001,0.0011,-0.0007,0.0,-0.025,-0.11900000000000001
1701526358.032,19.609,19.609,-19.609,0.0008,0.0,-0.062200000000000005,-0.006,-0.038,-0.123
1701526358.072,19.609,19.609,-19.609,-0.0005,0.0006000000000000001,0.051500000000000004,-0.009000000000000001,-0.01,-0.123
1701526358.112,19.609,19.609,-19.609,-0.0027,-0.002,-0.0465,0.007,0.006,-0.123
1701526358.152,19.609,19.609,-19.609,0.0007,-0.0014,0.028900000000000002,0.009000000000000001,0.0,-0.116
1701526358.192,19.609,19.609,-19.609,-0.0002,-0.0011,-0.0468,0.035,0.0,-0.105
1701526358.232,19.609,19.609,-19.609,-0.00030000000000000003,0.0019,0.0463,-0.017,0.009000000000000001,-0.109
1701526358.272,19.609,19.609,-19.609,-0.0007,0.0004,-0.0371,-0.019,-0.031,-0.10200000000000001
1701526358.312,19.609,19.609,-19.609,-0.0017000000000000001,-0.0009000000000000001,0.031900000000000005,-0.007,-0.044,-0.121
1701526358.352,19.609,19.609,-19.609,0.0,0.0005,-0.060500000000000005,0.014,-0.004,-0.127
1701526358.392,19.609,19.609,-19.609,0.0001,0.0017000000000000001,0.0495,0.022,-0.021,-0.127
1701526358.432,19.609,19.609,-19.609,-0.0021000000000000003,0.0014,-0.0134,0.006,-0.022,-0.11900000000000001
1701526358.472,19.609,19.609,-19.609,0.0008,0.0009000000000000001,-0.020800000000000003,-0.012,-0.023,-0.114
1701526358.5119998,19.609,19.609,-19.609,0.0002,0.0018000000000000002,0.0287,-0.019,-0.059000000000000004,-0.11800000000000001
1701526358.552,19.609,19.609,-19.609,-0.00030000000000000003,-0.0001,-0.0625,0.007,-0.069,-0.113
1701526358.592,19.609,19.609,-19.609,0.0004,-0.0007,0.0546,0.045,-0.051000000000000004,-0.123
1701526358.632,19.609,19.609,-19.609,-0.0005,0.0017000000000000001,-0.0363,0.096,-0.039,-0.151
1701526358.672,19.609,19.609,-19.609,-0.0012000000000000001,0.0001,0.0346,0.146,-0.014,-0.14400000000000002
1701526358.712,19.609,19.609,-19.609,0.0004,-0.0006000000000000001,-0.012,0.10200000000000001,-0.001,-0.113
1701526358.7519999,19.609,19.609,-19.609,-0.0014,0.00030000000000000003,-0.0233,0.134,-0.01,-0.127
1701526358.792,19.609,19.609,-19.609,-0.001,0.0009000000000000001,0.027,0.014,-0.029,-0.111
1701526358.832,19.609,19.609,-19.609,0.0048000000000000004,-0.0008,0.0007,-0.06,-0.048,-0.098
1701526358.872,19.609,19.609,-19.609,-0.0007,0.00030000000000000003,-0.0407,-0.075,-0.076,-0.108
1701526358.912,19.609,19.609,-19.609,-0.0036000000000000003,0.00030000000000000003,0.0333,-0.08700000000000001,-0.08,-0.092
1701526358.952,19.609,19.609,-19.609,-0.0018000000000000002,0.0025,-0.0098,-0.112,-0.07200000000000001,-0.079
1701526358.9919999,19.609,19.609,-19.609,0.0008,-0.0014,-0.0413,-0.10200000000000001,-0.054,-0.078
1701526359.032,19.609,19.609,-19.609,-0.0006000000000000001,-0.0001,0.0246,-0.049,-0.049,-0.077
1701526359.072,19.609,19.609,-19.609,-0.0004,-0.0005,0.007200000000000001,-0.036000000000000004,-0.056,-0.08700000000000001
1701526359.112,19.609,19.609,-19.609,0.0001,0.0007,0.0256,-0.053,-0.068,-0.095
1701526359.152,19.609,19.609,-19.609,0.0007,-0.0017000000000000001,0.029900000000000003,-0.057,-0.077,-0.088
1701526359.192,19.609,19.609,-19.609,-0.0004,0.0,-0.0213,-0.046,-0.088,-0.10300000000000001
1701526359.2319999,19.609,19.609,-19.609,0.0004,-0.0002,0.0077,-0.016,-0.079,-0.10400000000000001
1701526359.272,19.609,19.609,-19.609,0.0017000000000000001,0.0006000000000000001,-0.037200000000000004,0.024,-0.069,-0.109
1701526359.312,19.609,19.609,-19.609,-0.0014,0.0012000000000000001,0.025400000000000002,0.041,-0.064,-0.11
1701526359.352,19.609,19.609,-19.609,0.0012000000000000001,-0.0014,-0.034300000000000004,0.011,-0.052000000000000005,-0.11900000000000001
1701526359.392,19.609,19.609,-19.609,-0.0018000000000000002,0.0008,0.0292,0.012,-0.047,-0.108
1701526359.432,19.609,19.609,-19.609,-0.0015,0.0018000000000000002,-0.0375,0.012,-0.056,-0.099
1701526359.472,19.609,19.609,-19.609,-0.0007,0.0,0.024900000000000002,0.015,-0.067,-0.108
1701526359.512,19.609,19.609,-19.609,0.0014,0.0006000000000000001,0.0091,0.017,-0.058,-0.105
1701526359.552,19.609,19.609,-19.609,-0.0026000000000000003,0.0013000000000000002,-0.0227,0.018000000000000002,-0.036000000000000004,-0.1
1701526359.592,19.609,19.609,-19.609,-0.00030000000000000003,0.0029000000000000002,0.0132,0.007,-0.03,-0.101
1701526359.632,19.609,19.609,-19.609,-0.0007,0.00030000000000000003,0.0031000000000000003,0.018000000000000002,-0.025,-0.10200000000000001
1701526359.672,19.609,19.609,-19.609,-0.0007,0.0012000000000000001,-0.0347,0.013000000000000001,-0.038,-0.09
1701526359.712,19.609,19.609,-19.609,0.0,0.0006000000000000001,-0.041,0.028,-0.035,-0.09
1701526359.752,19.609,19.609,-19.609,-0.0008,0.0001,0.048400000000000006,0.02,-0.014,-0.08600000000000001
1701526359.792,19.609,19.609,-19.609,-0.0014,0.0001,-0.0216,0.017,-0.044,-0.085
1701526359.832,19.609,19.609,-19.609,-0.0004,-0.0001,0.026000000000000002,0.013000000000000001,-0.059000000000000004,-0.1
1701526359.872,19.609,19.609,-19.609,-0.0004,-0.00030000000000000003,-0.0448,0.001,-0.061,-0.10300000000000001
1701526359.912,19.609,19.609,-19.609,-0.0037,-0.0006000000000000001,0.0342,0.002,-0.063,-0.106
1701526359.952,19.609,19.609,-19.609,0.0006000000000000001,0.0004,-0.0201,-0.006,-0.059000000000000004,-0.117
1701526359.992,19.609,19.609,-19.609,-0.0023,-0.0013000000000000002,0.0128,-0.014,-0.06,-0.121
1701526360.032,19.609,19.609,-19.609,-0.001,0.0006000000000000001,-0.0001,-0.01,-0.063,-0.115
1701526360.072,19.609,19.609,-19.609,-0.0025,-0.0026000000000000003,-0.028300000000000002,-0.004,-0.066,-0.112
1701526360.112,19.609,19.609,-19.609,-0.0024000000000000002,0.0004,0.0165,-0.012,-0.066,-0.117
1701526360.152,19.609,19.609,-19.609,0.0016,0.0,0.0057,-0.001,-0.062,-0.11
1701526360.192,19.609,19.609,-19.609,-0.0012000000000000001,0.001,-0.048,0.005,-0.055,-0.115
1701526360.232,19.609,19.609,-19.609,0.0018000000000000002,0.0,0.0349,0.003,-0.058,-0.114
1701526360.272,19.609,19.609,-19.609,0.0025,0.00030000000000000003,-0.047400000000000005,-0.001,-0.044,-0.111
1701526360.312,19.609,19.609,-19.609,-0.0001,-0.0005,0.038,-0.01,-0.022,-0.111
1701526360.352,19.609,19.609,-19.609,-0.001,0.0004,-0.0437,-0.012,-0.048,-0.11800000000000001
1701526360.392,19.609,19.609,-19.609,0.00030000000000000003,0.0014,0.0358,-0.011,-0.049,-0.114
1701526360.432,19.609,19.609,-19.609,-0.0001,0.0014,-0.042800000000000005,-0.004,-0.041,-0.115
1701526360.472,19.609,19.609,-19.609,0.001,-0.0002,0.0363,-0.006,-0.049,-0.115
1701526360.5119998,19.609,19.609,-19.609,0.0012000000000000001,0.0025,0.0037,0.008,-0.052000000000000005,-0.124
1701526360.552,19.609,19.609,-19.609,0.0005,-0.0015,-0.0441,0.02,-0.053,-0.116
1701526360.592,19.609,19.609,-19.609,-0.0029000000000000002,0.00030000000000000003,0.033,-0.002,-0.045,-0.112
1701526360.632,19.609,19.609,-19.609,0.0002,-0.0001,0.0034000000000000002,-0.012,-0.034,-0.105
1701526360.672,19.609,19.609,-19.609,0.0012000000000000001,-0.0009000000000000001,-0.051800000000000006,-0.02,-0.025,-0.107
1701526360.712,19.609,19.609,-19.609,-0.0009000000000000001,0.0022,0.0317,-0.011,-0.037,-0.109
1701526360.7519999,19.609,19.609,-19.609,-0.001,0.002,-0.0037,-0.015,-0.038,-0.113
1701526360.792,19.609,19.609,-19.609,-0.00030000000000000003,0.00030000000000000003,-0.0002,-0.009000000000000001,-0.047,-0.116
1701526360.832,19.609,19.609,-19.609,0.0027,0.0015,0.0097,-0.022,-0.056,-0.121
1701526360.872,19.609,19.609,-19.609,-0.0045000000000000005,0.0,-0.0609,-0.013000000000000001,-0.065,-0.112
1701526360.912,19.609,19.609,-19.609,0.0001,0.0005,0.0541,-0.005,-0.051000000000000004,-0.114
1701526360.952,19.609,19.609,-19.609,-0.0002,0.0006000000000000001,-0.025900000000000003,0.0,-0.055,-0.12
1701526360.9919999,19.609,19.609,-19.609,-0.0008,-0.0018000000000000002,-0.025900000000000003,-0.004,-0.059000000000000004,-0.116
1701526361.032,19.609,19.609,-19.609,-0.0004,0.0,-0.0155,-0.014,-0.043000000000000003,-0.117
1701526361.072,19.609,19.609,-19.609,-0.0015,-0.002,-0.047400000000000005,-0.005,-0.044,-0.11800000000000001
1701526361.112,19.609,19.609,-19.609,-0.0006000000000000001,0.00030000000000000003,0.061500000000000006,-0.015,-0.044,-0.108
1701526361.152,19.609,19.609,-19.609,0.0007,-0.0002,-0.0014,-0.005,-0.049,-0.111
1701526361.192,19.609,19.609,-19.609,-0.00030000000000000003,0.0009000000000000001,-0.0318,0.001,-0.047,-0.123
1701526361.2319999,19.609,19.609,-19.609,-0.00030000000000000003,0.0004,0.0252,-0.014,-0.043000000000000003,-0.116
1701526361.272,19.609,19.609,-19.609,-0.0001,0.0024000000000000002,-0.0005,-0.017,-0.047,-0.115
1701526361.312,19.609,19.609,-19.609,-0.0005,-0.0009000000000000001,-0.049100000000000005,-0.006,-0.04,-0.122
1701526361.352,19.609,19.609,-19.609,-0.0007,-0.0007,0.041600000000000005,-0.008,-0.049,-0.113
1701526361.392,19.609,19.609,-19.609,-0.001,0.001,0.0077,-0.007,-0.042,-0.11900000000000001
1701526361.432,19.609,19.609,-19.609,0.002,0.0,-0.0512,0.0,-0.043000000000000003,-0.117
1701526361.472,19.609,19.609,-19.609,-0.0007,0.0012000000000000001,0.0358,-0.01,-0.051000000000000004,-0.127
1701526361.512,19.609,19.609,-19.609,-0.0022,0.0001,-0.007200000000000001,-0.008,-0.056,-0.127
1701526361.552,19.609,19.609,-19.609,-0.0014,-0.0011,0.0024000000000000002,-0.022,-0.055,-0.126
1701526361.592,19.609,19.609,-19.609,-0.00030000000000000003,0.0004,0.001,-0.022,-0.049,-0.11900000000000001
1701526361.632,19.609,19.609,-19.609,0.001,-0.0001,-0.025,-0.005,-0.049,-0.112
1701526361.672,19.609,19.609,-19.609,0.0,0.0004,0.014400000000000001,0.0,-0.018000000000000002,-0.11900000000000001
1701526361.712,19.609,19.609,-19.609,-0.0004,0.0008,-0.0539,-0.016,-0.057,-0.123
1701526361.752,19.609,19.609,-19.609,-0.0009000000000000001,-0.0016,0.0396,-0.021,-0.04,-0.112
1701526361.792,19.609,19.609,-19.609,-0.0004,0.0009000000000000001,-0.0036000000000000003,-0.008,-0.045,-0.114
1701526361.832,19.609,19.609,-19.609,0.001,0.0001,-0.011000000000000001,0.001,-0.038,-0.116
1701526361.872,19.609,19.609,-19.609,0.0004,-0.0014,-0.032,-0.005,-0.012,-0.113
1701526361.912,19.609,19.609,-19.609,-0.0013000000000000002,0.0006000000000000001,0.029400000000000003,-0.002,-0.033,-0.123
1701526361.952,19.609,19.609,-19.609,-0.0008,0.0008,-0.029900000000000003,-0.01,-0.033,-0.117
1701526361.992,19.609,19.609,-19.609,0.0009000000000000001,-0.00030000000000000003,0.030600000000000002,-0.008,-0.044,-0.125
1701526362.032,19.609,19.609,-19.609,-0.0037,-0.0029000000000000002,-0.0184,-0.01,-0.029,-0.11800000000000001
1701526362.072,19.609,19.609,-19.609,-0.004,0.0006000000000000001,-0.0037,0.004,-0.032,-0.121
1701526362.112,19.609,19.609,-19.609,-0.00030000000000000003,-0.0005,-0.053500000000000006,-0.002,-0.034,-0.115
1701526362.152,19.609,19.609,-19.609,-0.00030000000000000003,0.0014,0.0613,0.001,-0.042,-0.11800000000000001
1701526362.192,19.609,19.609,-19.609,-0.0002,0.0025,-0.0112,0.001,-0.059000000000000004,-0.122
1701526362.232,19.609,19.609,-19.609,-0.0013000000000000002,-0.0004,-0.006500000000000001,-0.006,-0.058,-0.122
1701526362.272,19.609,19.609,-19.609,0.00030000000000000003,-0.0004,-0.0017000000000000001,0.002,-0.046,-0.125
1701526362.312,19.609,19.609,-19.609,-0.0011,-0.0007,0.0137,-0.009000000000000001,-0.041,-0.124
1701526362.352,19.609,19.609,-19.609,0.0,-0.001,-0.061700000000000005,-0.01,-0.049,-0.10300000000000001
1701526362.392,19.609,19.609,-19.609,-0.0017000000000000001,-0.0013000000000000002,0.0413,0.0,-0.039,-0.111
1701526362.432,19.609,19.609,-19.609,-0.0006000000000000001,-0.0007,-0.0374,0.007,-0.038,-0.116
1701526362.472,19.609,19.609,-19.609,-0.0006000000000000001,-0.0007,0.036500000000000005,-0.012,-0.04,-0.11
1701526362.5119998,19.609,19.609,-19.609,0.0,-0.0004,-0.0522,-0.007,-0.039,-0.113
1701526362.552,19.609,19.609,-19.609,0.0001,-0.0024000000000000002,0.0167,0.0,-0.035,-0.111
1701526362.592,19.609,19.609,-19.609,-0.0006000000000000001,-0.00030000000000000003,0.020900000000000002,-0.002,-0.042,-0.11
1701526362.632,19.609,19.609,-19.609,0.0034000000000000002,0.0014,-0.0252,0.002,-0.034,-0.098
1701526362.672,19.609,19.609,-19.609,0.0009000000000000001,0.0017000000000000001,0.0195,0.007,-0.029,-0.106
1701526362.712,19.609,19.609,-19.609,0.0023,-0.0006000000000000001,-0.044500000000000005,-0.004,-0.029,-0.10300000000000001
1701526362.7519999,19.609,19.609,-19.609,0.0038,-0.00030000000000000003,-0.0425,0.004,-0.037,-0.10300000000000001
1701526362.792,19.609,19.609,-19.609,0.0015,-0.0015,0.025900000000000003,0.003,-0.026000000000000002,-0.1
1701526362.832,19.609,19.609,-19.609,-0.0027,0.0001,0.0111,-0.012,-0.006,-0.10300000000000001
1701526362.872,19.609,19.609,-19.609,-0.0001,0.0,-0.010100000000000001,-0.046,0.043000000000000003,-0.09
1701526362.912,19.609,19.609,-19.609,0.001,0.001,-0.0477,-0.054,0.034,-0.07
1701526362.952,19.609,19.609,-19.609,0.00030000000000000003,-0.0012000000000000001,0.0397,0.002,0.01,-0.098
1701526362.9919999,19.609,19.609,-19.609,-0.0004,0.0007,-0.025400000000000002,0.006,-0.035,-0.11900000000000001
1701526363.032,19.609,19.609,-19.609,-0.0004,0.00030000000000000003,0.015600000000000001,-0.008,-0.069,-0.113
1701526363.072,19.609,19.609,-19.609,-0.0034000000000000002,0.0004,-0.024,0.0,-0.085,-0.128
1701526363.112,19.609,19.609,-19.609,0.0001,-0.0002,0.0115,0.016,-0.067,-0.114
1701526363.152,19.609,19.609,-19.609,0.0009000000000000001,0.0004,0.0061,-0.004,-0.066,-0.11800000000000001
1701526363.192,19.609,19.609,-19.609,0.0007,-0.0004,-0.0347,-0.021,-0.055,-0.11800000000000001
1701526363.2319999,19.609,19.609,-19.609,0.0006000000000000001,0.0021000000000000003,-0.0241,-0.007,-0.05,-0.116
1701526363.272,19.609,19.609,-19.609,-0.0018000000000000002,-0.0007,0.038200000000000005,-0.003,-0.044,-0.116
1701526363.312,19.609,19.609,-19.609,0.0,0.0012000000000000001,-0.0325,-0.013000000000000001,0.0,-0.113
1701526363.352,19.609,19.609,-19.609,0.0053,0.0008,0.030000000000000002,-0.029,-0.033,-0.10400000000000001
1701526363.392,19.609,19.609,-19.609,-0.0015,-0.0009000000000000001,-0.0092,0.001,-0.029,-0.10300000000000001
1701526363.432,19.609,19.609,-19.609,0.0024000000000000002,0.0007,0.007,-0.003,-0.032,-0.107
1701526363.472,19.609,19.609,-19.609,-0.0004,-0.0016,-0.0488,-0.012,-0.059000000000000004,-0.117
1701526363.512,19.609,19.609,-19.609,0.0001,-0.0015,0.0297,-0.016,-0.07,-0.122
1701526363.552,19.609,19.609,-19.609,-0.001,-0.0026000000000000003,-0.0019,-0.016,-0.078,-0.122
1701526363.592,19.609,19.609,-19.609,0.00030000000000000003,0.0018000000000000002,0.0007,-0.011,-0.039,-0.109
1701526363.632,19.609,19.609,-19.609,0.0,0.0001,-0.0519,0.0,-0.019,-0.095
1701526363.672,19.609,19.609,-19.609,-0.0026000000000000003,0.0029000000000000002,0.0367,0.047,-0.005,-0.1
1701526363.712,19.609,19.609,-19.609,0.0015,0.0012000000000000001,0.0012000000000000001,-0.001,-0.013000000000000001,-0.097
1701526363.752,19.609,19.609,-19.609,-0.0016,-0.0014,-0.0413,-0.027,-0.041,-0.107
1701526363.792,19.609,19.609,-19.609,-0.0012000000000000001,-0.0015,0.0291,0.0,-0.074,-0.123
1701526363.832,19.609,19.609,-19.609,0.0023,-0.0001,-0.0286,-0.005,-0.077,-0.11900000000000001
1701526363.872,19.609,19.609,-19.609,-0.0013000000000000002,0.0001,0.027600000000000003,-0.007,-0.064,-0.122
1701526363.912,19.609,19.609,-19.609,-0.002,-0.0002,-0.046900000000000004,-0.004,-0.047,-0.12
1701526363.952,19.609,19.609,-19.609,0.0007,0.0009000000000000001,0.0349,-0.014,-0.033,-0.112
1701526363.992,19.609,19.609,-19.609,0.0012000000000000001,0.0015,0.0046,-0.013000000000000001,-0.025,-0.113
1701526364.032,19.609,19.609,-19.609,-0.0012000000000000001,0.0004,-0.035500000000000004,-0.002,-0.046,-0.11800000000000001
1701526364.072,19.609,19.609,-19.609,-0.00030000000000000003,-0.0007,0.0183,0.0,-0.069,-0.115
1701526364.112,19.609,19.609,-19.609,-0.0007,0.0001,-0.0029000000000000002,0.0,-0.057,-0.113
1701526364.152,19.609,19.609,-19.609,-0.0006000000000000001,-0.001,0.0074,-0.006,-0.046,-0.124
1701526364.192,19.609,19.609,-19.609,-0.0006000000000000001,0.0007,-0.0371,-0.012,-0.047,-0.11900000000000001
1701526364.232,19.609,19.609,-19.609,-0.0028,0.0014,0.0219,-0.018000000000000002,-0.04,-0.11
1701526364.272,19.609,19.609,-19.609,-0.0013000000000000002,0.0,-0.012400000000000001,-0.003,-0.044,-0.126
1701526364.312,19.609,19.609,-19.609,-0.0007,-0.0011,0.0115,-0.008,-0.045,-0.11800000000000001
1701526364.352,19.609,19.609,-19.609,-0.0004,-0.0001,-0.065,0.0,-0.042,-0.12
1701526364.392,19.609,19.609,-19.609,-0.002,-0.0024000000000000002,0.0446,-0.01,-0.039,-0.117
1701526364.432,19.609,19.609,-19.609,-0.0006000000000000001,0.0028,-0.0078000000000000005,-0.008,-0.031,-0.116
1701526364.472,19.609,19.609,-19.609,0.0029000000000000002,-0.0015,-0.0177,-0.003,-0.038,-0.112
1701526364.5119998,19.609,19.609,-19.609,-0.0009000000000000001,0.0007,0.019100000000000002,-0.005,-0.049,-0.11900000000000001
1701526364.552,19.609,19.609,-19.609,-0.0006000000000000001,-0.0008,-0.0258,-0.006,-0.049,-0.109
1701526364.592,19.609,19.609,-19.609,-0.001,-0.0005,-0.0322,-0.005,-0.051000000000000004,-0.10400000000000001
1701526364.632,19.609,19.609,-19.609,-0.0005,-0.0018000000000000002,0.028,0.001,-0.051000000000000004,-0.116
1701526364.672,19.609,19.609,-19.609,-0.0006000000000000001,0.0,-0.023,0.0,-0.039,-0.11
1701526364.712,19.609,19.609,-19.609,0.0,-0.0004,-0.010100000000000001,0.0,-0.009000000000000001,-0.107
1701526364.7519999,19.609,19.609,-19.609,0.0012000000000000001,-0.0005,0.0253,0.004,-0.021,-0.10400000000000001
1701526364.792,19.609,19.609,-19.609,-0.0009000000000000001,0.0006000000000000001,-0.0318,0.003,-0.034,-0.108
1701526364.832,19.609,19.609,-19.609,-0.0019,0.0,-0.0053,-0.007,-0.044,-0.096
1701526364.872,19.609,19.609,-19.609,0.00030000000000000003,0.0023,0.023,-0.014,-0.055,-0.114
1701526364.912,19.609,19.609,-19.609,0.0021000000000000003,0.0004,-0.044000000000000004,-0.013000000000000001,-0.047,-0.12
1701526364.952,19.609,19.609,-19.609,0.0009000000000000001,0.00030000000000000003,0.0391,-0.007,-0.042,-0.109
1701526364.9919999,19.609,19.609,-19.609,0.0021000000000000003,0.0006000000000000001,0.0015,-0.001,-0.049,-0.121
1701526365.032,19.609,19.609,-19.609,-0.0009000000000000001,-0.0027,-0.0599,0.004,-0.031,-0.123
1701526365.072,19.609,19.609,-19.609,-0.0012000000000000001,0.0024000000000000002,0.041800000000000004,-0.01,-0.048,-0.11900000000000001
1701526365.112,19.609,19.609,-19.609,-0.0014,0.0008,-0.022600000000000002,0.021,-0.048,-0.127
1701526365.152,19.609,19.609,-19.609,-0.0031000000000000003,-0.0006000000000000001,0.0007,-0.007,-0.047,-0.11900000000000001
1701526365.192,19.609,19.609,-19.609,0.002,-0.0004,0.006500000000000001,0.014,-0.056,-0.11900000000000001
1701526365.2319999,19.609,19.609,-19.609,0.0004,-0.001,-0.0079,0.053,-0.05,-0.11900000000000001
1701526365.272,19.609,19.609,-19.609,-0.0034000000000000002,-0.0007,-0.0032,0.011,-0.044,-0.122
1701526365.312,19.609,19.609,-19.609,-0.0023,-0.0018000000000000002,-0.0296,0.008,-0.046,-0.115
1701526365.352,19.609,19.609,-19.609,-0.0009000000000000001,-0.0017000000000000001,0.028800000000000003,0.016,-0.042,-0.12
1701526365.392,19.609,19.609,-19.609,0.0004,-0.0013000000000000002,-0.0324,0.012,-0.054,-0.114
1701526365.432,19.609,19.609,-19.609,0.0026000000000000003,0.0017000000000000001,0.0291,-0.019,-0.046,-0.105
1701526365.472,19.609,19.609,-19.609,-0.0006000000000000001,-0.0006000000000000001,-0.0022,-0.055,-0.038,-0.107
1701526365.512,19.609,19.609,-19.609,0.0006000000000000001,-0.00030000000000000003,-0.0297,-0.014,-0.049,-0.108
1701526365.552,19.609,19.609,-19.609,-0.0014,-0.0005,0.0211,-0.019,-0.044,-0.107
1701526365.592,19.609,19.609,-19.609,0.00030000000000000003,-0.002,0.0023,-0.018000000000000002,-0.045,-0.101
1701526365.632,19.609,19.609,-19.609,-0.0019,0.0004,-0.055900000000000005,-0.006,-0.039,-0.105
1701526365.672,19.609,19.609,-19.609,0.00030000000000000003,-0.0002,0.0471,-0.008,-0.042,-0.10400000000000001
1701526365.712,19.609,19.609,-19.609,-0.001,-0.0014,-0.0317,0.0,-0.041,-0.106
1701526365.752,19.609,19.609,-19.609,0.0,0.0011,0.020300000000000002,-0.01,-0.044,-0.121
1701526365.792,19.609,19.609,-19.609,-0.0025,-0.0017000000000000001,-0.0281,-0.023,-0.048,-0.11900000000000001
1701526365.832,19.609,19.609,-19.609,0.0001,-0.0016,0.0219,-0.023,-0.05,-0.123
1701526365.872,19.609,19.609,-19.609,-0.0011,-0.0006000000000000001,-0.0409,-0.013000000000000001,-0.058,-0.135
1701526365.912,19.609,19.609,-19.609,0.0001,0.0013000000000000002,0.0268,-0.012,-0.077,-0.158
1701526365.952,19.609,19.609,-19.609,-0.0017000000000000001,0.0001,0.007,-0.012,-0.097,-0.17500000000000002
1701526365.992,19.609,19.609,-19.609,-0.0009000000000000001,-0.0029000000000000002,-0.0471,-0.014,-0.114,-0.169
1701526366.032,19.609,19.609,-19.609,-0.0005,0.0018000000000000002,0.0375,-0.016,-0.127,-0.159
1701526366.072,19.609,19.609,-19.609,-0.0007,0.0015,0.0012000000000000001,-0.018000000000000002,-0.137,-0.148
1701526366.112,19.609,19.609,-19.609,0.0008,0.0,-0.0309,-0.025,-0.138,-0.156
1701526366.152,19.609,19.609,-19.609,0.0002,0.0009000000000000001,0.0187,-0.058,-0.223,-0.164
1701526366.192,19.609,19.609,-19.609,0.0001,-0.0007,-0.0026000000000000003,-0.116,-0.277,-0.184
1701526366.232,19.609,19.609,-19.609,0.00030000000000000003,-0.0015,-0.045200000000000004,-0.23500000000000001,-0.355,-0.183
1701526366.272,19.609,19.609,-19.609,0.0015,-0.0007,0.038,-0.364,-0.47300000000000003,-0.202
1701526366.312,19.609,19.609,-19.609,-0.0012000000000000001,0.0017000000000000001,-0.033,-0.46900000000000003,-0.5680000000000001,-0.20600000000000002
1701526366.352,19.609,19.609,-19.609,-0.0009000000000000001,-0.00030000000000000003,0.059000000000000004,-0.389,-0.535,-0.192
1701526366.392,19.609,19.609,-19.609,0.00030000000000000003,0.0004,-0.0603,-0.264,-0.509,-0.176
1701526366.432,19.609,19.609,-19.609,0.0029000000000000002,0.0011,0.07980000000000001,-0.196,-0.47800000000000004,-0.158
1701526366.472,19.609,19.609,-19.609,-0.0001,0.001,-0.0506,-0.131,-0.441,-0.148
1701526366.5119998,19.609,19.609,-19.609,-0.0006000000000000001,0.0022,0.0385,-0.106,-0.436,-0.14
1701526366.552,19.609,19.609,-19.609,0.0006000000000000001,-0.0001,-0.0251,-0.096,-0.482,-0.165
1701526366.592,19.609,19.609,-19.609,-0.0015,-0.0007,0.012400000000000001,-0.061,-0.447,-0.16
1701526366.632,19.609,19.609,-19.609,-0.0013000000000000002,0.0027,-0.0451,-0.027,-0.442,-0.181
1701526366.672,19.609,19.609,-19.609,-0.0002,0.0,0.037200000000000004,0.01,-0.41200000000000003,-0.199
1701526366.712,19.609,19.609,-19.609,0.0018000000000000002,-0.0001,-0.043500000000000004,0.013000000000000001,-0.419,-0.216
1701526366.7519999,19.609,19.609,-19.609,0.0006000000000000001,-0.00030000000000000003,0.0408,-0.043000000000000003,-0.376,-0.19
1701526366.792,19.609,19.609,-19.609,0.0019,0.0013000000000000002,-0.0274,-0.057,-0.356,-0.179
1701526366.832,19.609,19.609,-19.609,0.0005,0.0005,0.0159,0.018000000000000002,-0.307,-0.17500000000000002
1701526366.872,19.609,19.609,-19.609,0.0004,0.0005,-0.0656,0.03,-0.34500000000000003,-0.18
1701526366.912,19.609,19.609,-19.609,0.0006000000000000001,-0.0014,0.06280000000000001,0.008,-0.298,-0.155
1701526366.952,19.609,19.609,-19.609,0.0039000000000000003,-0.00030000000000000003,-0.0451,0.024,-0.29,-0.163
1701526366.9919999,19.609,19.609,-19.609,0.0006000000000000001,0.0015,0.0473,0.025,-0.262,-0.132
1701526367.032,19.609,19.609,-19.609,-0.0007,0.0,-0.041800000000000004,0.018000000000000002,-0.268,-0.121
1701526367.072,19.609,19.609,-19.609,-0.0018000000000000002,-0.0005,0.0356,0.022,-0.28,-0.10400000000000001
1701526367.112,19.609,19.609,-19.609,0.0,-0.0001,-0.0419,0.031,-0.256,-0.093
1701526367.152,19.609,19.609,-19.609,0.0021000000000000003,0.0001,0.036500000000000005,0.044,-0.158,-0.079
1701526367.192,19.609,19.609,-19.609,-0.0018000000000000002,-0.0017000000000000001,-0.015300000000000001,0.056,-0.191,-0.08700000000000001
1701526367.2319999,19.609,19.609,-19.609,0.0016,-0.0023,-0.0196,0.027,-0.137,-0.083
1701526367.272,19.609,19.609,-19.609,-0.0006000000000000001,0.0019,0.005200000000000001,0.023,-0.132,-0.089
1701526367.312,19.609,19.609,-19.609,-0.0017000000000000001,0.0014,-0.033100000000000004,0.006,-0.14400000000000002,-0.088
1701526367.352,19.609,19.609,-19.609,0.0004,-0.00030000000000000003,0.0437,-0.001,-0.127,-0.092
1701526367.392,19.609,19.609,-19.609,0.0009000000000000001,0.0007,-0.0414,-0.014,-0.117,-0.105
1701526367.432,19.609,19.609,-19.609,-0.001,0.0012000000000000001,0.033600000000000005,0.031,-0.099,-0.101
1701526367.472,19.609,19.609,-19.609,-0.0017000000000000001,0.0,-0.026500000000000003,0.036000000000000004,-0.081,-0.094
1701526367.512,19.609,19.609,-19.609,0.0005,-0.0029000000000000002,0.0068000000000000005,0.037,-0.076,-0.10300000000000001
1701526367.552,19.609,19.609,-19.609,0.00030000000000000003,-0.0001,-0.0074,0.026000000000000002,-0.089,-0.114
1701526367.592,19.609,19.609,-19.609,0.0009000000000000001,0.0014,-0.0092,0.015,-0.09,-0.11
1701526367.632,19.609,19.609,-19.609,-0.0002,-0.0001,0.0041,0.013000000000000001,-0.059000000000000004,-0.108
1701526367.672,19.609,19.609,-19.609,0.0009000000000000001,-0.0001,-0.019700000000000002,0.006,-0.056,-0.11800000000000001
1701526367.712,19.609,19.609,-19.609,-0.0008,-0.0006000000000000001,0.0142,0.003,-0.045,-0.113
1701526367.752,19.609,19.609,-19.609,-0.0025,0.0012000000000000001,0.0046,0.007,-0.028,-0.117
1701526367.792,19.609,19.609,-19.609,0.0013000000000000002,-0.0005,-0.007,0.014,-0.012,-0.106
1701526367.832,19.609,19.609,-19.609,0.0,-0.0014,-0.006,0.013000000000000001,-0.013000000000000001,-0.105
1701526367.872,19.609,19.609,-19.609,0.0017000000000000001,-0.0006000000000000001,-0.0327,0.001,-0.02,-0.099
1701526367.912,19.609,19.609,-19.609,0.0006000000000000001,0.0026000000000000003,0.016900000000000002,0.005,-0.019,-0.105
1701526367.952,19.609,19.609,-19.609,0.0,-0.0023,0.0082,-0.001,-0.019,-0.1
1701526367.992,19.609,19.609,-19.609,-0.0001,0.00030000000000000003,-0.005200000000000001,-0.011,-0.022,-0.10200000000000001
1701526368.032,19.609,19.609,-19.609,0.001,0.0001,-0.0055000000000000005,-0.015,-0.013000000000000001,-0.11800000000000001
1701526368.072,19.609,19.609,-19.609,0.002,0.0,0.008400000000000001,-0.021,0.003,-0.114
1701526368.112,19.609,19.609,-19.609,0.0004,0.0017000000000000001,-0.0327,-0.032,0.017,-0.111
1701526368.152,19.609,19.609,-19.609,0.0021000000000000003,0.0,0.025,-0.038,0.013000000000000001,-0.12
1701526368.192,19.609,19.609,-19.609,-0.0012000000000000001,0.0011,-0.014400000000000001,-0.039,0.009000000000000001,-0.122
1701526368.232,19.609,19.609,-19.609,-0.0013000000000000002,0.0,0.0269,-0.038,0.026000000000000002,-0.126
1701526368.272,19.609,19.609,-19.609,-0.0035,0.0001,-0.028,-0.044,0.032,-0.126
1701526368.312,19.609,19.609,-19.609,-0.0001,-0.001,0.007200000000000001,-0.041,0.031,-0.125
1701526368.352,19.609,19.609,-19.609,0.0013000000000000002,0.001,0.0158,-0.048,0.035,-0.129
1701526368.392,19.609,19.609,-19.609,0.0026000000000000003,0.001,-0.0376,-0.035,0.037,-0.117
1701526368.432,19.609,19.609,-19.609,-0.001,0.0001,0.009600000000000001,-0.028,0.025,-0.125
