timestamp,acc_x,acc_y,acc_z,magn_x,magn_y,magn_z,gyro_x,gyro_y,gyro_z
1701525870.167,19.609,19.609,-19.609,-0.0009000000000000001,0.0007,0.0063,-0.07200000000000001,-0.066,-0.028
1701525870.207,19.609,19.609,-19.609,-0.003,-0.0009000000000000001,-0.008,-0.043000000000000003,-0.048,-0.034
1701525870.247,19.609,19.609,-19.609,-0.0011,0.0023,-0.0303,-0.014,-0.057,-0.049
1701525870.287,19.609,19.609,-19.609,-0.00030000000000000003,-0.0006000000000000001,0.009000000000000001,-0.018000000000000002,-0.064,-0.073
1701525870.327,19.609,19.609,-19.609,-0.0029000000000000002,0.00030000000000000003,-0.029,-0.008,-0.07200000000000001,-0.085
1701525870.3669999,19.609,19.609,-19.609,0.0,0.0007,0.044500000000000005,-0.036000000000000004,-0.037,-0.062
1701525870.407,19.609,19.609,-19.609,-0.0021000000000000003,0.0006000000000000001,-0.0148,-0.049,-0.041,-0.069
1701525870.447,19.609,19.609,-19.609,-0.0049,-0.0022,0.0034000000000000002,-0.07100000000000001,-0.06,-0.085
1701525870.487,19.609,19.609,-19.609,-0.0013000000000000002,0.0,-0.032100000000000004,-0.027,-0.053,-0.109
1701525870.527,19.609,19.609,-19.609,0.0016,-0.0007,0.0204,0.027,-0.07100000000000001,-0.127
1701525870.567,19.609,19.609,-19.609,-0.0012000000000000001,0.0007,-0.0142,0.091,-0.093,-0.14200000000000002
1701525870.6069999,19.609,19.609,-19.609,-0.0012000000000000001,-0.0001,0.0031000000000000003,0.302,-0.11900000000000001,-0.145
1701525870.647,19.609,19.609,-19.609,0.0,0.0008,-0.028900000000000002,0.422,-0.115,-0.163
1701525870.687,19.609,19.609,-19.609,0.0008,0.0009000000000000001,0.027200000000000002,0.459,-0.112,-0.168
1701525870.727,19.609,19.609,-19.609,-0.0016,0.0005,-0.0383,0.441,-0.115,-0.188
1701525870.767,19.609,19.609,-19.609,0.0001,-0.0006000000000000001,0.0134,0.399,-0.081,-0.199
1701525870.807,19.609,19.609,-19.609,0.0008,0.0026000000000000003,0.0183,0.341,-0.044,-0.188
1701525870.847,19.609,19.609,-19.609,-0.0017000000000000001,0.002,-0.0562,0.28,0.0,-0.165
1701525870.887,19.609,19.609,-19.609,-0.00030000000000000003,-0.001,0.0455,0.248,-0.001,-0.158
1701525870.927,19.609,19.609,-19.609,0.0,0.0,-0.011300000000000001,0.192,-0.025,-0.14100000000000001
1701525870.967,19.609,19.609,-19.609,0.0007,-0.0002,0.008400000000000001,0.153,-0.023,-0.125
1701525871.007,19.609,19.609,-19.609,-0.0033,-0.0016,-0.0316,0.107,-0.038,-0.111
1701525871.047,19.609,19.609,-19.609,-0.0015,0.0,0.0213,0.049,-0.032,-0.076
1701525871.087,19.609,19.609,-19.609,0.0007,0.001,-0.0198,-0.017,-0.001,-0.058
1701525871.127,19.609,19.609,-19.609,0.0,-0.0004,0.0155,-0.013000000000000001,0.001,-0.054
1701525871.167,19.609,19.609,-19.609,0.00030000000000000003,-0.0018000000000000002,-0.030500000000000003,-0.001,0.018000000000000002,-0.063
1701525871.207,19.609,19.609,-19.609,-0.0006000000000000001,-0.0017000000000000001,0.031200000000000002,-0.025,0.003,-0.073
1701525871.247,19.609,19.609,-19.609,-0.0007,-0.0013000000000000002,-0.049,-0.076,-0.036000000000000004,-0.06
1701525871.287,19.609,19.609,-19.609,-0.0007,-0.0021000000000000003,0.054200000000000005,-0.075,-0.024,-0.062
1701525871.327,19.609,19.609,-19.609,-0.0002,0.0002,-0.0342,-0.09,-0.027,-0.07100000000000001
1701525871.367,19.609,19.609,-19.609,0.001,-0.0015,0.005,-0.08700000000000001,0.013000000000000001,-0.067
1701525871.407,19.609,19.609,-19.609,-0.003,0.0004,0.0073,0.018000000000000002,0.048,-0.094
1701525871.447,19.609,19.609,-19.609,0.0004,0.0005,-0.0476,0.047,0.032,-0.108
1701525871.487,19.609,19.609,-19.609,0.00030000000000000003,0.0027,0.060700000000000004,0.004,-0.006,-0.085
1701525871.527,19.609,19.609,-19.609,-0.0011,-0.0009000000000000001,-0.07050000000000001,0.011,-0.005,-0.073
1701525871.567,19.609,19.609,-19.609,0.0007,-0.00030000000000000003,0.0351,0.11800000000000001,0.026000000000000002,-0.09
1701525871.607,19.609,19.609,-19.609,0.0013000000000000002,-0.0006000000000000001,0.0045000000000000005,0.20500000000000002,0.021,-0.092
1701525871.647,19.609,19.609,-19.609,-0.0002,0.0001,-0.0346,0.268,0.021,-0.101
1701525871.687,19.609,19.609,-19.609,-0.0014,0.0021000000000000003,0.0238,0.296,0.021,-0.098
1701525871.727,19.609,19.609,-19.609,-0.0006000000000000001,0.0006000000000000001,-0.0509,0.363,0.02,-0.095
1701525871.767,19.609,19.609,-19.609,0.0054,0.0009000000000000001,0.043500000000000004,0.384,0.011,-0.106
1701525871.807,19.609,19.609,-19.609,0.0005,0.0014,-0.0014,0.335,0.02,-0.126
1701525871.847,19.609,19.609,-19.609,-0.0015,-0.0006000000000000001,-0.0449,0.317,0.051000000000000004,-0.116
1701525871.8869998,19.609,19.609,-19.609,0.001,0.0009000000000000001,0.0337,0.3,0.052000000000000005,-0.10300000000000001
1701525871.927,19.609,19.609,-19.609,-0.0005,-0.0007,-0.0164,0.291,0.022,-0.083
1701525871.967,19.609,19.609,-19.609,-0.0009000000000000001,0.001,-0.0539,0.226,0.003,-0.062
1701525872.007,19.609,19.609,-19.609,-0.0024000000000000002,-0.0007,0.059500000000000004,0.14100000000000001,-0.016,-0.056
1701525872.047,19.609,19.609,-19.609,0.0028,0.0015,-0.046200000000000005,0.073,-0.043000000000000003,-0.062
1701525872.087,19.609,19.609,-19.609,-0.0007,0.0005,0.039900000000000005,0.003,-0.085,-0.09
1701525872.1269999,19.609,19.609,-19.609,-0.0034000000000000002,0.0006000000000000001,-0.0081,-0.008,-0.089,-0.106
1701525872.167,19.609,19.609,-19.609,0.0004,0.0007,-0.0187,-0.003,-0.063,-0.113
1701525872.207,19.609,19.609,-19.609,-0.0012000000000000001,-0.0001,0.018600000000000002,-0.002,-0.063,-0.121
1701525872.247,19.609,19.609,-19.609,-0.0021000000000000003,-0.0001,-0.0054,-0.019,-0.051000000000000004,-0.115
1701525872.287,19.609,19.609,-19.609,0.0006000000000000001,-0.0004,-0.0455,-0.025,-0.056,-0.115
1701525872.327,19.609,19.609,-19.609,-0.003,0.0017000000000000001,0.0441,-0.03,-0.058,-0.126
1701525872.3669999,19.609,19.609,-19.609,0.0,0.001,-0.010100000000000001,-0.084,-0.062,-0.117
1701525872.407,19.609,19.609,-19.609,0.0006000000000000001,-0.001,-0.0177,-0.04,-0.061,-0.116
1701525872.447,19.609,19.609,-19.609,-0.0031000000000000003,-0.0006000000000000001,0.0032,-0.029,-0.073,-0.124
1701525872.487,19.609,19.609,-19.609,-0.00030000000000000003,0.00030000000000000003,-0.028900000000000002,-0.018000000000000002,-0.042,-0.124
1701525872.527,19.609,19.609,-19.609,-0.0035,0.001,0.037200000000000004,-0.017,-0.038,-0.136
1701525872.567,19.609,19.609,-19.609,-0.0021000000000000003,0.0016,-0.0478,-0.04,-0.038,-0.122
1701525872.6069999,19.609,19.609,-19.609,0.00030000000000000003,0.0006000000000000001,0.05,-0.047,-0.016,-0.112
1701525872.647,19.609,19.609,-19.609,0.0006000000000000001,0.0017000000000000001,-0.0405,-0.024,-0.034,-0.125
1701525872.687,19.609,19.609,-19.609,0.0,-0.0013000000000000002,0.0172,0.017,-0.038,-0.125
1701525872.727,19.609,19.609,-19.609,-0.0018000000000000002,-0.0012000000000000001,0.0117,-0.021,-0.042,-0.125
1701525872.767,19.609,19.609,-19.609,0.0019,0.00030000000000000003,-0.0013000000000000002,-0.029,-0.031,-0.131
1701525872.807,19.609,19.609,-19.609,0.0008,-0.0001,-0.0327,-0.027,-0.026000000000000002,-0.129
1701525872.847,19.609,19.609,-19.609,-0.0021000000000000003,0.0026000000000000003,0.021400000000000002,-0.028,-0.048,-0.112
1701525872.887,19.609,19.609,-19.609,0.0006000000000000001,0.0012000000000000001,-0.0142,-0.02,-0.043000000000000003,-0.11800000000000001
1701525872.927,19.609,19.609,-19.609,0.0,0.00030000000000000003,0.010700000000000001,-0.013000000000000001,-0.041,-0.123
1701525872.967,19.609,19.609,-19.609,-0.0009000000000000001,-0.0019,-0.036500000000000005,-0.009000000000000001,-0.042,-0.112
1701525873.007,19.609,19.609,-19.609,0.00030000000000000003,-0.0004,0.020900000000000002,-0.009000000000000001,-0.043000000000000003,-0.11800000000000001
1701525873.047,19.609,19.609,-19.609,-0.0005,0.0,-0.0432,-0.009000000000000001,-0.048,-0.121
1701525873.087,19.609,19.609,-19.609,-0.0007,-0.0012000000000000001,0.0397,-0.02,-0.049,-0.12
1701525873.127,19.609,19.609,-19.609,-0.0021000000000000003,-0.00030000000000000003,-0.037700000000000004,-0.038,-0.051000000000000004,-0.115
1701525873.167,19.609,19.609,-19.609,-0.0014,0.0014,0.0292,-0.051000000000000004,-0.031,-0.1
1701525873.207,19.609,19.609,-19.609,-0.001,0.0006000000000000001,-0.0098,-0.04,-0.04,-0.099
1701525873.247,19.609,19.609,-19.609,-0.0028,0.0013000000000000002,-0.0183,-0.014,-0.046,-0.098
1701525873.287,19.609,19.609,-19.609,-0.0018000000000000002,0.0,0.0078000000000000005,-0.005,-0.049,-0.126
1701525873.327,19.609,19.609,-19.609,0.0033,-0.0004,0.012400000000000001,-0.034,-0.058,-0.107
1701525873.367,19.609,19.609,-19.609,0.0,0.0007,-0.012400000000000001,-0.047,-0.037,-0.115
1701525873.407,19.609,19.609,-19.609,0.0009000000000000001,0.0015,-0.038200000000000005,-0.044,-0.018000000000000002,-0.134
1701525873.447,19.609,19.609,-19.609,-0.0011,0.0007,0.0269,-0.075,-0.007,-0.11900000000000001
1701525873.487,19.609,19.609,-19.609,0.0004,-0.0008,-0.0137,-0.091,-0.002,-0.10300000000000001
1701525873.527,19.609,19.609,-19.609,-0.0023,-0.00030000000000000003,-0.0239,-0.054,-0.015,-0.093
1701525873.567,19.609,19.609,-19.609,-0.0011,0.0006000000000000001,0.028900000000000002,-0.024,-0.028,-0.095
1701525873.607,19.609,19.609,-19.609,0.0004,-0.0004,-0.0349,-0.001,-0.023,-0.112
1701525873.647,19.609,19.609,-19.609,-0.00030000000000000003,-0.0004,-0.002,-0.005,-0.004,-0.113
1701525873.687,19.609,19.609,-19.609,0.0002,0.0009000000000000001,0.028200000000000003,-0.036000000000000004,-0.012,-0.116
1701525873.727,19.609,19.609,-19.609,-0.003,0.0,-0.0056,-0.051000000000000004,-0.049,-0.108
1701525873.767,19.609,19.609,-19.609,0.001,0.0007,0.007,-0.042,-0.022,-0.111
1701525873.807,19.609,19.609,-19.609,0.0014,-0.0001,-0.0548,-0.061,-0.02,-0.113
1701525873.847,19.609,19.609,-19.609,0.0002,0.0007,0.033600000000000005,-0.05,-0.028,-0.10300000000000001
1701525873.8869998,19.609,19.609,-19.609,-0.0025,0.00030000000000000003,-0.0004,-0.043000000000000003,-0.017,-0.10400000000000001
1701525873.927,19.609,19.609,-19.609,-0.0017000000000000001,0.0,-0.029400000000000003,-0.021,-0.02,-0.113
1701525873.967,19.609,19.609,-19.609,-0.0015,-0.0001,0.0239,-0.02,-0.005,-0.109
1701525874.007,19.609,19.609,-19.609,0.0009000000000000001,0.0022,-0.022000000000000002,-0.035,-0.016,-0.112
1701525874.047,19.609,19.609,-19.609,-0.00030000000000000003,-0.0007,0.0073,0.0,-0.021,-0.11800000000000001
1701525874.087,19.609,19.609,-19.609,-0.001,0.0008,0.0029000000000000002,0.003,-0.031,-0.127
1701525874.1269999,19.609,19.609,-19.609,-0.0011,0.0017000000000000001,-0.0386,-0.014,-0.042,-0.127
1701525874.167,19.609,19.609,-19.609,-0.0012000000000000001,-0.0001,0.027700000000000002,-0.019,-0.034,-0.14
1701525874.207,19.609,19.609,-19.609,-0.0014,-0.00030000000000000003,-0.0178,-0.017,-0.026000000000000002,-0.124
1701525874.247,19.609,19.609,-19.609,-0.0004,0.0,-0.0247,-0.011,-0.034,-0.128
1701525874.287,19.609,19.609,-19.609,0.0007,-0.00030000000000000003,0.0408,-0.005,-0.033,-0.136
1701525874.327,19.609,19.609,-19.609,-0.0002,0.00030000000000000003,-0.0031000000000000003,-0.023,-0.032,-0.136
1701525874.3669999,19.609,19.609,-19.609,0.0001,0.0004,-0.0228,-0.012,-0.044,-0.14400000000000002
1701525874.407,19.609,19.609,-19.609,-0.0007,0.0007,0.0219,-0.019,-0.034,-0.138
1701525874.447,19.609,19.609,-19.609,0.0012000000000000001,0.0012000000000000001,-0.0279,-0.017,-0.031,-0.14300000000000002
1701525874.487,19.609,19.609,-19.609,-0.0005,-0.0004,0.0171,-0.036000000000000004,-0.035,-0.15
1701525874.527,19.609,19.609,-19.609,0.0012000000000000001,-0.0018000000000000002,0.0016,-0.067,-0.067,-0.132
1701525874.567,19.609,19.609,-19.609,-0.0019,0.0014,-0.0244,-0.096,-0.076,-0.124
1701525874.6069999,19.609,19.609,-19.609,-0.0015,0.0001,0.0239,-0.113,-0.084,-0.115
1701525874.647,19.609,19.609,-19.609,-0.0015,0.0026000000000000003,-0.0267,-0.116,-0.056,-0.111
1701525874.687,19.609,19.609,-19.609,-0.0004,0.0001,0.020300000000000002,-0.095,-0.025,-0.111
1701525874.727,19.609,19.609,-19.609,-0.0009000000000000001,0.001,-0.0409,-0.059000000000000004,-0.008,-0.089
1701525874.767,19.609,19.609,-19.609,0.0005,-0.0012000000000000001,0.0216,-0.032,0.009000000000000001,-0.079
1701525874.807,19.609,19.609,-19.609,-0.001,0.0017000000000000001,-0.0142,-0.021,-0.007,-0.065
1701525874.847,19.609,19.609,-19.609,0.0,-0.0005,0.031900000000000005,-0.009000000000000001,-0.033,-0.08600000000000001
1701525874.887,19.609,19.609,-19.609,-0.0029000000000000002,0.0016,-0.0007,-0.014,-0.061,-0.115
1701525874.927,19.609,19.609,-19.609,-0.00030000000000000003,-0.0021000000000000003,-0.044000000000000004,-0.065,-0.063,-0.113
1701525874.967,19.609,19.609,-19.609,0.0007,-0.0006000000000000001,0.0383,-0.053,-0.052000000000000005,-0.122
1701525875.007,19.609,19.609,-19.609,0.0028,-0.0001,-0.028200000000000003,0.0,-0.034,-0.134
1701525875.047,19.609,19.609,-19.609,-0.0001,-0.0022,-0.0608,0.027,-0.026000000000000002,-0.107
1701525875.087,19.609,19.609,-19.609,-0.0021000000000000003,0.0006000000000000001,0.0734,0.029,-0.048,-0.10300000000000001
1701525875.127,19.609,19.609,-19.609,0.0039000000000000003,0.0,-0.0436,0.005,-0.056,-0.114
1701525875.167,19.609,19.609,-19.609,0.0018000000000000002,0.0,0.0574,-0.044,-0.067,-0.132
1701525875.207,19.609,19.609,-19.609,-0.0025,-0.0012000000000000001,-0.0426,-0.062,-0.068,-0.129
1701525875.247,19.609,19.609,-19.609,0.0006000000000000001,0.001,0.0098,-0.022,-0.056,-0.15
1701525875.287,19.609,19.609,-19.609,0.0,0.0,-0.0262,-0.003,-0.05,-0.151
1701525875.327,19.609,19.609,-19.609,0.0014,-0.0007,-0.0045000000000000005,-0.038,-0.052000000000000005,-0.131
1701525875.367,19.609,19.609,-19.609,-0.0024000000000000002,0.0015,0.0135,-0.096,-0.059000000000000004,-0.117
1701525875.407,19.609,19.609,-19.609,-0.00030000000000000003,-0.0008,0.005200000000000001,-0.158,-0.051000000000000004,-0.097
1701525875.447,19.609,19.609,-19.609,-0.0019,0.0005,0.0012000000000000001,-0.182,-0.058,-0.097
1701525875.487,19.609,19.609,-19.609,-0.0029000000000000002,-0.002,-0.009600000000000001,-0.159,-0.056,-0.106
1701525875.527,19.609,19.609,-19.609,0.0019,-0.0012000000000000001,-0.013300000000000001,-0.154,-0.047,-0.10300000000000001
1701525875.567,19.609,19.609,-19.609,-0.0036000000000000003,-0.0007,-0.0529,-0.092,-0.044,-0.105
1701525875.607,19.609,19.609,-19.609,-0.0025,0.0002,0.0507,-0.084,-0.045,-0.111
1701525875.647,19.609,19.609,-19.609,0.001,0.0004,-0.0078000000000000005,-0.084,-0.057,-0.109
1701525875.687,19.609,19.609,-19.609,0.0,-0.0001,0.0071,-0.097,-0.053,-0.096
1701525875.727,19.609,19.609,-19.609,0.0005,0.0014,-0.033,-0.107,-0.033,-0.095
1701525875.767,19.609,19.609,-19.609,-0.0002,-0.0004,0.027700000000000002,-0.006,-0.017,-0.12
1701525875.807,19.609,19.609,-19.609,-0.0034000000000000002,-0.0004,-0.0114,0.074,-0.003,-0.132
1701525875.847,19.609,19.609,-19.609,0.0023,0.0,-0.0177,0.128,-0.004,-0.107
1701525875.8869998,19.609,19.609,-19.609,0.0008,0.0,0.0258,0.13,-0.003,-0.093
1701525875.927,19.609,19.609,-19.609,-0.0021000000000000003,0.0,-0.0178,0.163,-0.035,-0.08600000000000001
1701525875.967,19.609,19.609,-19.609,0.0004,-0.0012000000000000001,0.0032,0.134,-0.048,-0.095
1701525876.007,19.609,19.609,-19.609,-0.0031000000000000003,-0.00030000000000000003,-0.0032,0.088,-0.052000000000000005,-0.111
1701525876.047,19.609,19.609,-19.609,-0.0017000000000000001,0.0013000000000000002,0.001,0.043000000000000003,-0.03,-0.113
1701525876.087,19.609,19.609,-19.609,0.00030000000000000003,-0.0001,-0.0438,0.025,-0.045,-0.109
1701525876.1269999,19.609,19.609,-19.609,0.0012000000000000001,-0.0009000000000000001,0.0361,0.039,-0.047,-0.114
1701525876.167,19.609,19.609,-19.609,0.0008,-0.0005,-0.0212,0.029,-0.049,-0.107
1701525876.207,19.609,19.609,-19.609,0.001,0.0,0.0166,0.017,-0.066,-0.11
1701525876.247,19.609,19.609,-19.609,-0.0007,0.0005,-0.0014,0.0,-0.059000000000000004,-0.111
1701525876.287,19.609,19.609,-19.609,-0.00030000000000000003,0.0,-0.0514,-0.014,-0.049,-0.125
1701525876.327,19.609,19.609,-19.609,-0.0005,0.0007,0.047,-0.007,-0.047,-0.11900000000000001
1701525876.3669999,19.609,19.609,-19.609,-0.0004,0.0018000000000000002,-0.0017000000000000001,0.019,-0.04,-0.129
1701525876.407,19.609,19.609,-19.609,-0.0048000000000000004,-0.0009000000000000001,-0.0088,0.011,-0.036000000000000004,-0.134
1701525876.447,19.609,19.609,-19.609,-0.002,-0.0001,-0.0505,-0.001,-0.038,-0.129
1701525876.487,19.609,19.609,-19.609,0.0009000000000000001,-0.0007,0.0485,-0.007,-0.027,-0.123
1701525876.527,19.609,19.609,-19.609,-0.0011,-0.0001,-0.031900000000000005,-0.007,-0.027,-0.129
1701525876.567,19.609,19.609,-19.609,-0.0011,-0.0007,0.026600000000000002,-0.009000000000000001,-0.028,-0.11900000000000001
1701525876.6069999,19.609,19.609,-19.609,-0.0002,-0.002,-0.036000000000000004,0.018000000000000002,-0.029,-0.114
1701525876.647,19.609,19.609,-19.609,0.0028,0.0,0.033100000000000004,0.039,-0.031,-0.122
1701525876.687,19.609,19.609,-19.609,-0.0006000000000000001,0.0009000000000000001,-0.027800000000000002,0.026000000000000002,-0.029,-0.128
1701525876.727,19.609,19.609,-19.609,-0.0006000000000000001,0.0006000000000000001,0.0216,0.016,-0.022,-0.13
1701525876.767,19.609,19.609,-19.609,-0.0012000000000000001,0.0007,-0.0366,0.023,-0.003,-0.127
1701525876.807,19.609,19.609,-19.609,0.0,-0.0012000000000000001,0.0264,0.04,-0.009000000000000001,-0.132
1701525876.847,19.609,19.609,-19.609,-0.0009000000000000001,-0.0005,-0.002,0.033,-0.02,-0.11800000000000001
1701525876.887,19.609,19.609,-19.609,-0.0001,0.0009000000000000001,-0.0337,0.024,-0.023,-0.10300000000000001
1701525876.927,19.609,19.609,-19.609,-0.0032,-0.002,0.033600000000000005,0.024,-0.022,-0.1
1701525876.967,19.609,19.609,-19.609,0.0008,-0.0005,-0.0148,0.025,-0.034,-0.108
1701525877.007,19.609,19.609,-19.609,-0.00030000000000000003,0.0009000000000000001,-0.0413,0.026000000000000002,-0.038,-0.109
1701525877.047,19.609,19.609,-19.609,-0.0011,0.0002,-0.0178,0.009000000000000001,-0.025,-0.116
1701525877.087,19.609,19.609,-19.609,-0.0032,-0.00030000000000000003,-0.040400000000000005,0.012,-0.02,-0.096
1701525877.127,19.609,19.609,-19.609,0.0002,0.0004,0.0631,0.027,-0.023,-0.091
1701525877.167,19.609,19.609,-19.609,-0.0011,-0.00030000000000000003,-0.0102,0.041,-0.02,-0.08600000000000001
1701525877.207,19.609,19.609,-19.609,0.0014,0.0001,0.0043,0.044,-0.024,-0.096
1701525877.247,19.609,19.609,-19.609,-0.001,0.0006000000000000001,-0.0408,0.034,-0.023,-0.114
1701525877.287,19.609,19.609,-19.609,-0.0007,0.001,0.0315,0.024,-0.033,-0.126
1701525877.327,19.609,19.609,-19.609,-0.0006000000000000001,0.0004,-0.0449,0.007,-0.039,-0.11900000000000001
1701525877.367,19.609,19.609,-19.609,0.0005,0.00030000000000000003,0.026600000000000002,0.005,-0.039,-0.11
1701525877.407,19.609,19.609,-19.609,-0.001,0.0,0.0029000000000000002,0.005,-0.031,-0.109
1701525877.447,19.609,19.609,-19.609,-0.0005,-0.0015,0.0097,0.013000000000000001,-0.038,-0.10300000000000001
1701525877.487,19.609,19.609,-19.609,-0.00030000000000000003,-0.0012000000000000001,-0.054900000000000004,0.024,-0.062,-0.107
1701525877.527,19.609,19.609,-19.609,-0.0001,-0.0004,0.0415,0.04,-0.043000000000000003,-0.123
1701525877.567,19.609,19.609,-19.609,0.0,-0.0006000000000000001,-0.050100000000000006,0.008,-0.045,-0.13
1701525877.607,19.609,19.609,-19.609,-0.0007,0.0017000000000000001,0.0419,-0.012,-0.014,-0.128
1701525877.647,19.609,19.609,-19.609,0.0008,-0.0001,-0.001,-0.008,-0.043000000000000003,-0.122
1701525877.687,19.609,19.609,-19.609,-0.0023,0.0006000000000000001,-0.0356,-0.007,-0.041,-0.122
1701525877.727,19.609,19.609,-19.609,0.0028,0.0024000000000000002,0.0211,0.007,-0.047,-0.122
1701525877.767,19.609,19.609,-19.609,0.0006000000000000001,0.0001,0.0048000000000000004,-0.007,-0.036000000000000004,-0.127
1701525877.807,19.609,19.609,-19.609,-0.001,0.00030000000000000003,-0.042,-0.021,-0.051000000000000004,-0.138
1701525877.847,19.609,19.609,-19.609,0.0012000000000000001,-0.0008,0.0325,-0.01,-0.057,-0.122
1701525877.8869998,19.609,19.609,-19.609,0.0004,-0.0007,-0.0253,0.012,-0.032,-0.138
1701525877.927,19.609,19.609,-19.609,-0.0009000000000000001,0.0012000000000000001,0.02,0.022,-0.033,-0.132
1701525877.967,19.609,19.609,-19.609,-0.002,-0.00030000000000000003,-0.0419,0.0,-0.041,-0.12
1701525878.007,19.609,19.609,-19.609,0.0015,0.0,0.0206,-0.001,-0.027,-0.11900000000000001
1701525878.047,19.609,19.609,-19.609,-0.00030000000000000003,0.0026000000000000003,0.0155,0.012,-0.031,-0.126
1701525878.087,19.609,19.609,-19.609,-0.0007,0.001,-0.0092,0.033,-0.035,-0.11800000000000001
1701525878.1269999,19.609,19.609,-19.609,-0.0013000000000000002,0.0015,0.0067,0.088,-0.024,-0.127
1701525878.167,19.609,19.609,-19.609,0.0032,0.00030000000000000003,-0.0258,0.152,0.004,-0.155
1701525878.207,19.609,19.609,-19.609,-0.0008,-0.0007,0.0115,0.215,0.046,-0.183
1701525878.247,19.609,19.609,-19.609,-0.0019,-0.0009000000000000001,-0.0363,0.186,0.026000000000000002,-0.159
1701525878.287,19.609,19.609,-19.609,-0.0009000000000000001,-0.0018000000000000002,0.030500000000000003,0.106,-0.01,-0.146
1701525878.327,19.609,19.609,-19.609,-0.00030000000000000003,0.0,-0.016900000000000002,0.032,-0.046,-0.125
1701525878.3669999,19.609,19.609,-19.609,0.004,0.0019,0.0089,-0.054,-0.074,-0.096
1701525878.407,19.609,19.609,-19.609,-0.00030000000000000003,-0.0001,-0.001,-0.059000000000000004,-0.079,-0.079
1701525878.447,19.609,19.609,-19.609,0.001,-0.0008,-0.0323,-0.006,-0.047,-0.09
1701525878.487,19.609,19.609,-19.609,-0.0002,0.0005,0.0196,-0.01,-0.043000000000000003,-0.109
1701525878.527,19.609,19.609,-19.609,0.0009000000000000001,0.0009000000000000001,-0.006900000000000001,-0.036000000000000004,-0.033,-0.122
1701525878.567,19.609,19.609,-19.609,0.001,-0.0009000000000000001,-0.0412,-0.049,-0.041,-0.127
1701525878.6069999,19.609,19.609,-19.609,-0.0012000000000000001,-0.0004,0.0247,-0.067,-0.054,-0.113
1701525878.647,19.609,19.609,-19.609,0.0018000000000000002,0.00030000000000000003,-0.0597,-0.044,-0.048,-0.098
1701525878.687,19.609,19.609,-19.609,-0.0025,-0.0019,0.0756,-0.002,-0.045,-0.097
1701525878.727,19.609,19.609,-19.609,0.0006000000000000001,-0.0001,-0.0047,0.006,-0.058,-0.10400000000000001
1701525878.767,19.609,19.609,-19.609,0.005,0.0023,-0.034300000000000004,-0.017,-0.05,-0.106
1701525878.807,19.609,19.609,-19.609,0.0029000000000000002,0.0001,0.019200000000000002,-0.014,-0.052000000000000005,-0.108
1701525878.847,19.609,19.609,-19.609,0.0008,0.0009000000000000001,-0.040400000000000005,-0.019,-0.04,-0.113
1701525878.887,19.609,19.609,-19.609,-0.001,0.0001,-0.019700000000000002,-0.015,-0.036000000000000004,-0.109
1701525878.927,19.609,19.609,-19.609,0.0032,-0.0004,0.0407,-0.012,-0.035,-0.111
1701525878.967,19.609,19.609,-19.609,-0.00030000000000000003,0.0,-0.0395,-0.02,-0.046,-0.10200000000000001
1701525879.007,19.609,19.609,-19.609,-0.0017000000000000001,-0.0006000000000000001,0.0245,-0.023,-0.062,-0.10300000000000001
1701525879.047,19.609,19.609,-19.609,-0.0007,-0.00030000000000000003,-0.036500000000000005,-0.012,-0.062,-0.1
1701525879.087,19.609,19.609,-19.609,0.0008,0.0006000000000000001,0.0318,0.015,-0.057,-0.097
1701525879.127,19.609,19.609,-19.609,-0.0029000000000000002,-0.0014,-0.008700000000000001,0.005,-0.061,-0.105
1701525879.167,19.609,19.609,-19.609,-0.0001,-0.0008,-0.0402,-0.001,-0.061,-0.105
1701525879.207,19.609,19.609,-19.609,0.0001,0.0002,0.0316,-0.002,-0.068,-0.10300000000000001
1701525879.247,19.609,19.609,-19.609,0.001,0.00030000000000000003,-0.0213,-0.013000000000000001,-0.083,-0.116
1701525879.287,19.609,19.609,-19.609,-0.0005,-0.0009000000000000001,0.0234,-0.001,-0.076,-0.122
1701525879.327,19.609,19.609,-19.609,-0.0023,-0.0036000000000000003,-0.0383,-0.03,-0.077,-0.127
1701525879.367,19.609,19.609,-19.609,-0.0047,0.0017000000000000001,0.030000000000000002,-0.024,-0.069,-0.11800000000000001
1701525879.407,19.609,19.609,-19.609,-0.0006000000000000001,0.0025,-0.0125,-0.022,-0.053,-0.111
1701525879.447,19.609,19.609,-19.609,0.0028,-0.002,0.0081,0.0,-0.048,-0.129
1701525879.487,19.609,19.609,-19.609,0.0022,0.0,-0.0487,-0.002,-0.04,-0.129
1701525879.527,19.609,19.609,-19.609,-0.0001,0.0006000000000000001,0.0448,0.016,-0.032,-0.117
1701525879.567,19.609,19.609,-19.609,-0.0001,0.0009000000000000001,-0.0333,-0.007,-0.036000000000000004,-0.133
1701525879.607,19.609,19.609,-19.609,-0.0014,-0.0022,0.0308,-0.024,-0.049,-0.113
1701525879.647,19.609,19.609,-19.609,0.0001,-0.0012000000000000001,-0.0167,-0.03,-0.063,-0.115
1701525879.687,19.609,19.609,-19.609,-0.0006000000000000001,0.0015,0.0119,-0.034,-0.044,-0.12
1701525879.727,19.609,19.609,-19.609,0.00030000000000000003,0.0,-0.0414,-0.045,-0.04,-0.117
1701525879.767,19.609,19.609,-19.609,0.0013000000000000002,-0.0001,0.0183,-0.041,-0.029,-0.126
1701525879.807,19.609,19.609,-19.609,-0.0015,0.0008,0.0142,-0.038,-0.013000000000000001,-0.12
1701525879.847,19.609,19.609,-19.609,0.0,0.0005,-0.020300000000000002,-0.022,-0.016,-0.111
1701525879.8869998,19.609,19.609,-19.609,-0.00030000000000000003,-0.0029000000000000002,0.026600000000000002,0.001,-0.068,-0.111
1701525879.927,19.609,19.609,-19.609,-0.0021000000000000003,0.0011,-0.0582,0.01,-0.037,-0.113
1701525879.967,19.609,19.609,-19.609,0.0009000000000000001,0.0029000000000000002,0.0308,0.003,-0.03,-0.125
1701525880.007,19.609,19.609,-19.609,0.0004,0.0016,0.006,-0.014,-0.021,-0.126
1701525880.047,19.609,19.609,-19.609,0.0009000000000000001,-0.0002,-0.0429,-0.023,-0.035,-0.11900000000000001
1701525880.087,19.609,19.609,-19.609,-0.0013000000000000002,0.0001,0.0415,-0.023,-0.02,-0.11800000000000001
1701525880.1269999,19.609,19.609,-19.609,0.001,0.00030000000000000003,-0.027700000000000002,-0.051000000000000004,-0.017,-0.099
1701525880.167,19.609,19.609,-19.609,0.00030000000000000003,0.00030000000000000003,0.0291,-0.005,-0.033,-0.091
1701525880.207,19.609,19.609,-19.609,-0.00030000000000000003,0.00030000000000000003,-0.0375,0.019,-0.029,-0.094
1701525880.247,19.609,19.609,-19.609,-0.0007,0.0017000000000000001,0.0296,0.0,-0.045,-0.095
1701525880.287,19.609,19.609,-19.609,-0.00030000000000000003,0.0,-0.0366,-0.006,-0.032,-0.109
1701525880.327,19.609,19.609,-19.609,-0.0007,0.0018000000000000002,0.027100000000000003,0.0,-0.049,-0.122
1701525880.3669999,19.609,19.609,-19.609,-0.0005,-0.0001,-0.0313,-0.029,-0.028,-0.113
1701525880.407,19.609,19.609,-19.609,-0.0001,0.0001,0.022000000000000002,-0.032,-0.016,-0.117
1701525880.447,19.609,19.609,-19.609,0.0015,-0.0025,-0.0152,-0.019,-0.023,-0.11800000000000001
1701525880.487,19.609,19.609,-19.609,-0.0001,-0.0006000000000000001,-0.0357,-0.004,-0.031,-0.108
1701525880.527,19.609,19.609,-19.609,-0.001,-0.0001,0.0512,-0.002,-0.038,-0.11
1701525880.567,19.609,19.609,-19.609,-0.0032,0.0009000000000000001,0.0025,-0.009000000000000001,-0.043000000000000003,-0.113
1701525880.6069999,19.609,19.609,-19.609,0.0011,-0.0007,0.0006000000000000001,-0.004,-0.039,-0.107
1701525880.647,19.609,19.609,-19.609,-0.0012000000000000001,-0.0007,-0.025500000000000002,-0.003,-0.039,-0.116
1701525880.687,19.609,19.609,-19.609,-0.0014,-0.0019,0.0476,0.0,-0.057,-0.123
1701525880.727,19.609,19.609,-19.609,-0.0018000000000000002,-0.001,0.0089,-0.019,-0.049,-0.125
1701525880.767,19.609,19.609,-19.609,0.00030000000000000003,0.00030000000000000003,-0.0056,-0.012,-0.042,-0.11900000000000001
1701525880.807,19.609,19.609,-19.609,-0.0004,0.0007,-0.0143,0.0,-0.059000000000000004,-0.129
1701525880.847,19.609,19.609,-19.609,-0.0013000000000000002,0.0007,0.0177,-0.029,-0.052000000000000005,-0.117
1701525880.887,19.609,19.609,-19.609,-0.0005,-0.0018000000000000002,-0.0339,-0.037,-0.061,-0.10400000000000001
1701525880.927,19.609,19.609,-19.609,-0.0012000000000000001,0.0014,0.0239,0.003,-0.048,-0.11900000000000001
1701525880.967,19.609,19.609,-19.609,-0.0021000000000000003,0.0011,-0.0131,0.013000000000000001,-0.05,-0.115
1701525881.007,19.609,19.609,-19.609,0.0012000000000000001,0.0015,0.0095,0.024,-0.013000000000000001,-0.126
1701525881.047,19.609,19.609,-19.609,0.0,0.0,-0.0541,0.03,-0.019,-0.125
1701525881.087,19.609,19.609,-19.609,-0.0014,-0.0017000000000000001,0.036000000000000004,-0.007,-0.045,-0.125
1701525881.127,19.609,19.609,-19.609,0.0004,-0.0004,-0.0031000000000000003,-0.013000000000000001,-0.044,-0.135
1701525881.167,19.609,19.609,-19.609,0.0009000000000000001,-0.0011,-0.0432,-0.005,-0.044,-0.132
1701525881.207,19.609,19.609,-19.609,-0.0023,-0.0016,0.0424,-0.003,-0.049,-0.113
1701525881.247,19.609,19.609,-19.609,-0.0005,0.0001,-0.0316,0.0,-0.061,-0.105
1701525881.287,19.609,19.609,-19.609,0.001,0.0004,0.0252,0.011,-0.059000000000000004,-0.11800000000000001
1701525881.327,19.609,19.609,-19.609,-0.001,0.0006000000000000001,-0.001,-0.01,-0.044,-0.11800000000000001
1701525881.367,19.609,19.609,-19.609,0.0017000000000000001,-0.0025,-0.0383,-0.017,-0.018000000000000002,-0.112
1701525881.407,19.609,19.609,-19.609,-0.0004,0.0014,0.031900000000000005,-0.032,-0.061,-0.127
1701525881.447,19.609,19.609,-19.609,0.0012000000000000001,0.0008,-0.0347,-0.029,-0.045,-0.128
1701525881.487,19.609,19.609,-19.609,0.0023,-0.0001,0.0316,-0.023,-0.041,-0.127
1701525881.527,19.609,19.609,-19.609,0.0008,-0.0021000000000000003,-0.0324,-0.005,-0.046,-0.127
1701525881.567,19.609,19.609,-19.609,-0.0011,-0.0001,0.0346,-0.03,-0.056,-0.123
1701525881.607,19.609,19.609,-19.609,-0.001,0.0021000000000000003,-0.041800000000000004,-0.036000000000000004,-0.037,-0.11800000000000001
1701525881.647,19.609,19.609,-19.609,-0.0013000000000000002,0.0015,0.0333,0.002,-0.039,-0.128
1701525881.687,19.609,19.609,-19.609,0.0018000000000000002,0.0028,-0.0048000000000000004,-0.01,-0.042,-0.128
1701525881.727,19.609,19.609,-19.609,-0.0001,-0.0001,-0.0181,-0.016,-0.044,-0.123
1701525881.767,19.609,19.609,-19.609,0.0012000000000000001,-0.002,0.0166,-0.008,-0.037,-0.12
1701525881.807,19.609,19.609,-19.609,0.0017000000000000001,0.0009000000000000001,-0.0434,-0.006,-0.034,-0.113
1701525881.847,19.609,19.609,-19.609,0.0016,-0.00030000000000000003,0.029400000000000003,-0.016,-0.045,-0.10300000000000001
1701525881.8869998,19.609,19.609,-19.609,-0.0005,-0.002,-0.0327,-0.003,-0.053,-0.112
1701525881.927,19.609,19.609,-19.609,-0.0015,0.0004,-0.019100000000000002,0.002,-0.052000000000000005,-0.10400000000000001
1701525881.967,19.609,19.609,-19.609,0.0,0.0008,0.0558,-0.005,-0.057,-0.106
1701525882.007,19.609,19.609,-19.609,0.0009000000000000001,0.0002,-0.034800000000000005,-0.005,-0.06,-0.122
1701525882.047,19.609,19.609,-19.609,0.0014,0.0001,0.0325,-0.022,-0.05,-0.122
1701525882.087,19.609,19.609,-19.609,0.0007,-0.002,-0.0512,-0.018000000000000002,-0.062,-0.117
1701525882.1269999,19.609,19.609,-19.609,-0.0014,-0.0005,0.0405,-0.009000000000000001,-0.048,-0.109
1701525882.167,19.609,19.609,-19.609,0.0006000000000000001,-0.0006000000000000001,-0.0439,-0.002,-0.049,-0.10400000000000001
1701525882.207,19.609,19.609,-19.609,-0.0025,0.0001,0.0379,0.002,-0.051000000000000004,-0.10400000000000001
1701525882.247,19.609,19.609,-19.609,0.0,0.0001,-0.029900000000000003,0.007,-0.046,-0.095
1701525882.287,19.609,19.609,-19.609,-0.0022,0.0,0.026600000000000002,-0.015,-0.041,-0.08700000000000001
1701525882.327,19.609,19.609,-19.609,-0.0001,0.0006000000000000001,-0.031900000000000005,-0.007,-0.026000000000000002,-0.07200000000000001
1701525882.3669999,19.609,19.609,-19.609,-0.0025,-0.0012000000000000001,0.028300000000000002,0.022,-0.032,-0.056
1701525882.407,19.609,19.609,-19.609,0.0007,-0.001,-0.057800000000000004,0.037,-0.036000000000000004,-0.04
1701525882.447,19.609,19.609,-19.609,-0.0009000000000000001,0.0,0.059800000000000006,0.021,-0.06,-0.027
1701525882.487,19.609,19.609,-19.609,0.0,0.0004,-0.048600000000000004,-0.02,-0.081,0.004
1701525882.527,19.609,19.609,-19.609,-0.0015,0.00030000000000000003,-0.0328,-0.057,-0.123,-0.003
1701525882.567,19.609,19.609,-19.609,-0.0007,0.0015,0.0097,-0.032,-0.106,-0.032
1701525882.6069999,19.609,19.609,-19.609,-0.0023,0.0014,-0.0465,0.011,-0.078,-0.067
1701525882.647,19.609,19.609,-19.609,-0.001,-0.0008,0.0383,0.027,-0.061,-0.088
1701525882.687,19.609,19.609,-19.609,0.0019,0.0,-0.0224,0.017,-0.059000000000000004,-0.093
1701525882.727,19.609,19.609,-19.609,0.00030000000000000003,0.0001,0.0149,-0.006,-0.066,-0.099
1701525882.767,19.609,19.609,-19.609,0.0022,0.00030000000000000003,0.0045000000000000005,0.001,-0.061,-0.11
1701525882.807,19.609,19.609,-19.609,-0.0002,-0.00030000000000000003,-0.0164,0.003,-0.064,-0.12
1701525882.847,19.609,19.609,-19.609,0.0006000000000000001,0.0,0.0047,0.008,-0.06,-0.124
1701525882.887,19.609,19.609,-19.609,-0.0008,0.0034000000000000002,-0.0241,0.003,-0.06,-0.125
1701525882.927,19.609,19.609,-19.609,0.0009000000000000001,-0.0001,0.019100000000000002,0.007,-0.06,-0.13
1701525882.967,19.609,19.609,-19.609,-0.00030000000000000003,0.0004,0.0067,0.012,-0.056,-0.133
1701525883.007,19.609,19.609,-19.609,-0.0028,0.001,-0.044000000000000004,-0.003,-0.062,-0.135
1701525883.047,19.609,19.609,-19.609,-0.0011,0.0,0.0247,0.0,-0.039,-0.121
1701525883.087,19.609,19.609,-19.609,-0.0018000000000000002,0.0007,-0.0047,-0.008,-0.046,-0.137
1701525883.127,19.609,19.609,-19.609,-0.0001,0.0018000000000000002,-0.035500000000000004,-0.01,-0.051000000000000004,-0.15
1701525883.167,19.609,19.609,-19.609,-0.0025,-0.0026000000000000003,0.0307,-0.009000000000000001,-0.052000000000000005,-0.14400000000000002
1701525883.207,19.609,19.609,-19.609,-0.0023,-0.0001,-0.0098,-0.007,-0.042,-0.14400000000000002
1701525883.247,19.609,19.609,-19.609,-0.0004,0.0009000000000000001,-0.0358,0.002,-0.053,-0.151
1701525883.287,19.609,19.609,-19.609,0.0006000000000000001,0.0012000000000000001,0.0374,0.005,-0.055,-0.148
1701525883.327,19.609,19.609,-19.609,0.0001,0.0001,-0.0349,0.006,-0.054,-0.14400000000000002
1701525883.367,19.609,19.609,-19.609,-0.0004,-0.002,0.023100000000000002,-0.043000000000000003,-0.05,-0.13
1701525883.407,19.609,19.609,-19.609,0.0009000000000000001,0.0002,0.0073,-0.012,-0.061,-0.127
1701525883.447,19.609,19.609,-19.609,0.0004,0.0,-0.0057,0.001,-0.043000000000000003,-0.11900000000000001
1701525883.487,19.609,19.609,-19.609,0.0001,-0.0005,-0.0555,0.007,-0.035,-0.116
1701525883.527,19.609,19.609,-19.609,-0.001,-0.001,0.0414,0.019,-0.035,-0.116
1701525883.567,19.609,19.609,-19.609,0.0015,-0.0001,-0.0183,0.014,-0.036000000000000004,-0.123
1701525883.607,19.609,19.609,-19.609,-0.0002,-0.0008,0.0064,-0.007,-0.033,-0.124
1701525883.647,19.609,19.609,-19.609,-0.0023,0.0005,0.0006000000000000001,0.0,-0.04,-0.11900000000000001
1701525883.687,19.609,19.609,-19.609,-0.0004,0.0005,-0.0415,-0.005,-0.042,-0.132
1701525883.727,19.609,19.609,-19.609,0.0001,-0.0007,0.0307,-0.001,-0.04,-0.115
1701525883.767,19.609,19.609,-19.609,-0.0001,0.0007,-0.0244,0.014,-0.037,-0.108
1701525883.807,19.609,19.609,-19.609,-0.0004,-0.0011,-0.0342,0.032,-0.024,-0.116
1701525883.847,19.609,19.609,-19.609,-0.0031000000000000003,0.0011,0.0292,0.007,-0.03,-0.12
1701525883.8869998,19.609,19.609,-19.609,-0.0015,0.0018000000000000002,0.0131,-0.011,-0.052000000000000005,-0.124
1701525883.927,19.609,19.609,-19.609,-0.0007,-0.0013000000000000002,-0.0262,-0.011,-0.039,-0.116
1701525883.967,19.609,19.609,-19.609,0.0001,-0.0024000000000000002,0.0117,-0.008,-0.049,-0.115
1701525884.007,19.609,19.609,-19.609,-0.0009000000000000001,0.0005,-0.028900000000000002,0.003,-0.052000000000000005,-0.099
1701525884.047,19.609,19.609,-19.609,0.0027,0.0006000000000000001,0.026000000000000002,0.014,-0.047,-0.10400000000000001
1701525884.087,19.609,19.609,-19.609,0.0007,0.0028,-0.0328,0.028,-0.02,-0.097
1701525884.1269999,19.609,19.609,-19.609,0.0,-0.0013000000000000002,0.0324,0.026000000000000002,-0.026000000000000002,-0.107
1701525884.167,19.609,19.609,-19.609,0.0028,-0.00030000000000000003,-0.0043,0.017,-0.041,-0.117
1701525884.207,19.609,19.609,-19.609,0.0009000000000000001,0.0001,-0.0397,0.0,-0.034,-0.11900000000000001
1701525884.247,19.609,19.609,-19.609,-0.0013000000000000002,0.0001,0.0403,-0.005,-0.033,-0.11900000000000001
1701525884.287,19.609,19.609,-19.609,0.0005,0.001,-0.055200000000000006,0.0,-0.033,-0.122
1701525884.327,19.609,19.609,-19.609,-0.00030000000000000003,-0.0004,0.023100000000000002,-0.001,-0.026000000000000002,-0.12
1701525884.3669999,19.609,19.609,-19.609,-0.0016,0.0011,0.0303,0.001,-0.032,-0.125
1701525884.407,19.609,19.609,-19.609,-0.0017000000000000001,0.0,-0.0132,0.0,-0.035,-0.131
1701525884.447,19.609,19.609,-19.609,-0.0025,-0.0007,-0.025500000000000002,0.003,-0.027,-0.145
1701525884.487,19.609,19.609,-19.609,0.0001,0.0023,0.0239,0.035,-0.014,-0.157
1701525884.527,19.609,19.609,-19.609,0.0007,0.00030000000000000003,-0.0587,0.002,-0.029,-0.138
1701525884.567,19.609,19.609,-19.609,0.001,0.0004,0.0473,-0.008,-0.033,-0.131
1701525884.6069999,19.609,19.609,-19.609,0.0014,-0.0023,-0.0488,-0.01,-0.028,-0.123
1701525884.647,19.609,19.609,-19.609,0.0005,0.0006000000000000001,0.0419,-0.005,-0.027,-0.129
1701525884.687,19.609,19.609,-19.609,0.0012000000000000001,0.0005,-0.0439,0.008,-0.048,-0.14300000000000002
1701525884.727,19.609,19.609,-19.609,0.0001,-0.0001,0.0324,0.023,-0.05,-0.136
1701525884.767,19.609,19.609,-19.609,0.00030000000000000003,-0.0012000000000000001,-0.0342,0.014,-0.055,-0.125
1701525884.807,19.609,19.609,-19.609,-0.0021000000000000003,-0.0025,0.0241,0.013000000000000001,-0.04,-0.129
1701525884.847,19.609,19.609,-19.609,0.0004,-0.0001,-0.0252,0.033,-0.034,-0.125
1701525884.887,19.609,19.609,-19.609,0.0004,-0.001,0.023100000000000002,0.029,-0.044,-0.121
1701525884.927,19.609,19.609,-19.609,0.0005,-0.0007,-0.0439,0.044,-0.029,-0.139
1701525884.967,19.609,19.609,-19.609,0.0026000000000000003,-0.0015,0.0425,0.041,-0.032,-0.134
1701525885.007,19.609,19.609,-19.609,-0.0008,-0.0011,-0.0118,0.037,-0.039,-0.135
1701525885.047,19.609,19.609,-19.609,0.0017000000000000001,-0.0004,-0.0322,0.02,-0.053,-0.134
1701525885.087,19.609,19.609,-19.609,-0.0017000000000000001,-0.0009000000000000001,0.0388,-0.011,-0.049,-0.111
1701525885.127,19.609,19.609,-19.609,0.0,-0.0006000000000000001,-0.0118,-0.013000000000000001,-0.039,-0.113
1701525885.167,19.609,19.609,-19.609,0.0012000000000000001,0.0005,-0.0073,-0.012,-0.035,-0.135
1701525885.207,19.609,19.609,-19.609,-0.0001,0.002,0.0053,-0.032,-0.046,-0.129
1701525885.247,19.609,19.609,-19.609,0.001,0.0014,-0.0436,-0.016,-0.051000000000000004,-0.115
1701525885.287,19.609,19.609,-19.609,0.0009000000000000001,-0.0009000000000000001,0.0281,-0.022,-0.066,-0.125
1701525885.327,19.609,19.609,-19.609,0.0004,0.0001,-0.0251,-0.035,-0.06,-0.126
1701525885.367,19.609,19.609,-19.609,-0.002,-0.0012000000000000001,0.0269,-0.052000000000000005,-0.053,-0.125
1701525885.407,19.609,19.609,-19.609,-0.0021000000000000003,0.0006000000000000001,-0.028800000000000003,-0.036000000000000004,-0.054,-0.13
1701525885.447,19.609,19.609,-19.609,0.0007,-0.0001,0.0143,-0.016,-0.045,-0.125
1701525885.487,19.609,19.609,-19.609,-0.0018000000000000002,-0.0008,-0.029400000000000003,-0.015,-0.042,-0.113
1701525885.527,19.609,19.609,-19.609,-0.0014,-0.0019,0.0229,0.0,-0.051000000000000004,-0.122
1701525885.567,19.609,19.609,-19.609,-0.00030000000000000003,-0.0019,0.0051,-0.009000000000000001,-0.053,-0.11800000000000001
1701525885.607,19.609,19.609,-19.609,0.001,0.0011,-0.0449,-0.024,-0.051000000000000004,-0.115
1701525885.647,19.609,19.609,-19.609,-0.00030000000000000003,0.0018000000000000002,-0.031900000000000005,-0.003,-0.049,-0.123
1701525885.687,19.609,19.609,-19.609,-0.0018000000000000002,-0.0004,0.0614,0.0,-0.047,-0.12
1701525885.727,19.609,19.609,-19.609,-0.0013000000000000002,0.00030000000000000003,-0.009000000000000001,-0.014,-0.047,-0.116
1701525885.767,19.609,19.609,-19.609,-0.0017000000000000001,-0.0005,0.007200000000000001,-0.002,-0.05,-0.121
1701525885.807,19.609,19.609,-19.609,0.0012000000000000001,0.0008,-0.039,-0.005,-0.054,-0.128
1701525885.847,19.609,19.609,-19.609,-0.0015,0.0,-0.043500000000000004,-0.02,-0.052000000000000005,-0.11900000000000001
1701525885.8869998,19.609,19.609,-19.609,-0.0004,-0.001,0.0659,-0.005,-0.045,-0.10400000000000001
1701525885.927,19.609,19.609,-19.609,-0.002,0.0,-0.0368,-0.008,-0.049,-0.106
1701525885.967,19.609,19.609,-19.609,0.0009000000000000001,0.002,0.029400000000000003,0.0,-0.054,-0.096
1701525886.007,19.609,19.609,-19.609,0.0007,0.001,-0.009600000000000001,0.018000000000000002,-0.04,-0.113
1701525886.047,19.609,19.609,-19.609,0.0004,0.0004,-0.015000000000000001,0.007,-0.048,-0.123
1701525886.087,19.609,19.609,-19.609,0.0006000000000000001,-0.0002,0.021500000000000002,-0.028,-0.047,-0.127
1701525886.1269999,19.609,19.609,-19.609,-0.0018000000000000002,0.0025,-0.024800000000000003,-0.031,-0.037,-0.13
1701525886.167,19.609,19.609,-19.609,-0.0006000000000000001,0.00030000000000000003,0.0275,-0.021,-0.034,-0.134
1701525886.207,19.609,19.609,-19.609,-0.0005,-0.001,-0.021,-0.018000000000000002,-0.037,-0.12
1701525886.247,19.609,19.609,-19.609,-0.0015,-0.0026000000000000003,0.0234,-0.014,-0.047,-0.105
1701525886.287,19.609,19.609,-19.609,0.0001,0.0002,0.0051,-0.008,-0.044,-0.109
1701525886.327,19.609,19.609,-19.609,-0.0017000000000000001,0.00030000000000000003,-0.030600000000000002,-0.005,-0.042,-0.096
1701525886.3669999,19.609,19.609,-19.609,-0.0017000000000000001,0.0001,0.0236,0.0,-0.052000000000000005,-0.096
1701525886.407,19.609,19.609,-19.609,0.001,-0.001,-0.037200000000000004,0.007,-0.049,-0.112
1701525886.447,19.609,19.609,-19.609,-0.001,-0.00030000000000000003,0.029900000000000003,-0.009000000000000001,-0.048,-0.10300000000000001
1701525886.487,19.609,19.609,-19.609,-0.0001,-0.0012000000000000001,-0.034300000000000004,-0.017,-0.065,-0.109
1701525886.527,19.609,19.609,-19.609,0.0009000000000000001,-0.0009000000000000001,0.026000000000000002,-0.026000000000000002,-0.07100000000000001,-0.126
1701525886.567,19.609,19.609,-19.609,-0.001,-0.0008,-0.0555,-0.017,-0.062,-0.115
1701525886.6069999,19.609,19.609,-19.609,-0.0011,0.0004,0.0425,-0.01,-0.057,-0.121
1701525886.647,19.609,19.609,-19.609,-0.0012000000000000001,0.0012000000000000001,-0.0374,0.0,-0.041,-0.11800000000000001
1701525886.687,19.609,19.609,-19.609,-0.0011,0.0,0.0308,0.007,-0.042,-0.125
1701525886.727,19.609,19.609,-19.609,-0.00030000000000000003,0.0006000000000000001,-0.036500000000000005,-0.007,-0.051000000000000004,-0.107
1701525886.767,19.609,19.609,-19.609,0.0018000000000000002,0.0002,0.024200000000000003,0.003,-0.033,-0.105
1701525886.807,19.609,19.609,-19.609,-0.0005,-0.0027,0.001,0.005,-0.063,-0.127
1701525886.847,19.609,19.609,-19.609,0.00030000000000000003,-0.0001,-0.023100000000000002,-0.011,-0.048,-0.125
1701525886.887,19.609,19.609,-19.609,-0.0006000000000000001,0.0006000000000000001,0.0109,-0.025,-0.031,-0.125
1701525886.927,19.609,19.609,-19.609,0.0011,0.0009000000000000001,-0.0487,-0.026000000000000002,-0.021,-0.132
1701525886.967,19.609,19.609,-19.609,-0.0009000000000000001,-0.0002,0.0448,-0.017,-0.027,-0.11800000000000001
1701525887.007,19.609,19.609,-19.609,-0.0044,-0.0001,-0.012,-0.008,-0.034,-0.094
1701525887.047,19.609,19.609,-19.609,-0.0004,-0.0017000000000000001,0.0074,0.0,-0.014,-0.101
1701525887.087,19.609,19.609,-19.609,0.0009000000000000001,0.0005,-0.045200000000000004,0.0,-0.034,-0.10200000000000001
1701525887.127,19.609,19.609,-19.609,-0.0012000000000000001,-0.0017000000000000001,0.0432,0.01,-0.041,-0.1
1701525887.167,19.609,19.609,-19.609,0.0015,0.0001,-0.0344,0.023,-0.033,-0.11
1701525887.207,19.609,19.609,-19.609,-0.0007,-0.0014,0.0291,0.002,-0.032,-0.12
1701525887.247,19.609,19.609,-19.609,0.0011,-0.0011,-0.0017000000000000001,-0.019,-0.045,-0.11800000000000001
1701525887.287,19.609,19.609,-19.609,-0.0007,0.0004,-0.0376,-0.012,-0.039,-0.125
1701525887.327,19.609,19.609,-19.609,0.0023,-0.0004,0.0033,-0.035,-0.044,-0.113
1701525887.367,19.609,19.609,-19.609,0.0012000000000000001,0.0009000000000000001,0.0063,0.0,-0.044,-0.114
1701525887.407,19.609,19.609,-19.609,-0.0005,-0.0028,0.0148,0.009000000000000001,-0.06,-0.105
1701525887.447,19.609,19.609,-19.609,-0.0015,-0.0006000000000000001,-0.0233,0.014,-0.056,-0.113
1701525887.487,19.609,19.609,-19.609,0.0007,0.0,0.0067,0.0,-0.045,-0.11
1701525887.527,19.609,19.609,-19.609,0.0011,-0.0004,-0.019100000000000002,-0.001,-0.04,-0.12
1701525887.567,19.609,19.609,-19.609,0.0005,0.0005,0.0206,-0.003,-0.043000000000000003,-0.129
1701525887.607,19.609,19.609,-19.609,0.0009000000000000001,-0.0015,-0.0333,-0.017,-0.042,-0.117
1701525887.647,19.609,19.609,-19.609,0.0,0.0012000000000000001,0.024900000000000002,-0.028,-0.038,-0.107
1701525887.687,19.609,19.609,-19.609,0.0002,0.0006000000000000001,-0.028800000000000003,0.003,-0.031,-0.109
1701525887.727,19.609,19.609,-19.609,0.0016,-0.0004,-0.0604,0.031,-0.028,-0.099
1701525887.767,19.609,19.609,-19.609,-0.002,0.0002,0.08220000000000001,0.027,-0.042,-0.10200000000000001
1701525887.807,19.609,19.609,-19.609,0.0019,0.0,-0.0374,0.009000000000000001,-0.032,-0.125
1701525887.847,19.609,19.609,-19.609,-0.0005,-0.0007,0.027600000000000003,-0.018000000000000002,-0.035,-0.129
1701525887.8869998,19.609,19.609,-19.609,0.0,-0.0009000000000000001,-0.0356,-0.031,-0.04,-0.122
1701525887.927,19.609,19.609,-19.609,0.0014,0.0,0.0233,-0.014,-0.029,-0.12
1701525887.967,19.609,19.609,-19.609,-0.0004,-0.0008,-0.031100000000000003,-0.008,-0.028,-0.117
1701525888.007,19.609,19.609,-19.609,-0.001,-0.0017000000000000001,-0.033800000000000004,-0.009000000000000001,-0.034,-0.111
1701525888.047,19.609,19.609,-19.609,-0.0013000000000000002,0.0,0.0164,-0.01,-0.03,-0.123
1701525888.087,19.609,19.609,-19.609,-0.0009000000000000001,-0.001,-0.015300000000000001,0.0,-0.028,-0.122
1701525888.1269999,19.609,19.609,-19.609,0.0002,-0.0001,0.014400000000000001,0.005,-0.019,-0.126
1701525888.167,19.609,19.609,-19.609,-0.0009000000000000001,0.0005,-0.0218,0.001,-0.017,-0.121
1701525888.207,19.609,19.609,-19.609,0.0,0.0009000000000000001,0.0109,-0.004,-0.02,-0.11800000000000001
1701525888.247,19.609,19.609,-19.609,0.0009000000000000001,0.0025,-0.06430000000000001,-0.012,-0.018000000000000002,-0.121
1701525888.287,19.609,19.609,-19.609,-0.0022,-0.0049,0.0661,0.009000000000000001,-0.034,-0.113
1701525888.327,19.609,19.609,-19.609,-0.0007,-0.0007,-0.0211,0.005,-0.036000000000000004,-0.123
1701525888.3669999,19.609,19.609,-19.609,0.0,0.0001,-0.0296,-0.018000000000000002,-0.051000000000000004,-0.125
1701525888.407,19.609,19.609,-19.609,0.0001,-0.0007,0.043300000000000005,-0.02,-0.052000000000000005,-0.117
1701525888.447,19.609,19.609,-19.609,0.0007,-0.0002,-0.0408,0.001,-0.043000000000000003,-0.111
1701525888.487,19.609,19.609,-19.609,0.0014,0.0006000000000000001,0.031,0.01,-0.048,-0.11800000000000001
1701525888.527,19.609,19.609,-19.609,0.0001,0.0015,-0.0029000000000000002,0.006,-0.061,-0.10200000000000001
1701525888.567,19.609,19.609,-19.609,0.0001,0.0,-0.0371,0.003,-0.057,-0.113
1701525888.6069999,19.609,19.609,-19.609,0.0,-0.0012000000000000001,0.0335,0.003,-0.044,-0.128
1701525888.647,19.609,19.609,-19.609,-0.0001,0.0014,-0.010100000000000001,-0.009000000000000001,-0.059000000000000004,-0.117
1701525888.687,19.609,19.609,-19.609,0.0067,0.0018000000000000002,-0.0234,-0.001,-0.081,-0.126
1701525888.727,19.609,19.609,-19.609,0.0006000000000000001,0.0007,0.0233,0.005,-0.041,-0.134
1701525888.767,19.609,19.609,-19.609,0.0004,0.0007,-0.0568,-0.015,-0.036000000000000004,-0.12
1701525888.807,19.609,19.609,-19.609,0.0014,0.0,0.049600000000000005,-0.009000000000000001,-0.03,-0.11900000000000001
1701525888.847,19.609,19.609,-19.609,0.0,0.00030000000000000003,0.0018000000000000002,-0.008,-0.054,-0.117
1701525888.887,19.609,19.609,-19.609,0.003,-0.001,-0.041800000000000004,-0.017,-0.043000000000000003,-0.124
1701525888.927,19.609,19.609,-19.609,0.0005,0.0029000000000000002,0.0322,-0.006,-0.052000000000000005,-0.114
1701525888.967,19.609,19.609,-19.609,-0.001,0.00030000000000000003,0.0015,-0.007,-0.05,-0.122
1701525889.007,19.609,19.609,-19.609,0.0001,0.0001,-0.045700000000000005,-0.015,-0.042,-0.121
1701525889.047,19.609,19.609,-19.609,-0.00030000000000000003,0.0009000000000000001,0.0376,-0.011,-0.052000000000000005,-0.109
1701525889.087,19.609,19.609,-19.609,-0.0002,0.00030000000000000003,-0.0182,-0.005,-0.049,-0.106
1701525889.127,19.609,19.609,-19.609,0.0015,0.0017000000000000001,0.007200000000000001,-0.024,-0.047,-0.114
1701525889.167,19.609,19.609,-19.609,-0.0002,0.00030000000000000003,0.004200000000000001,-0.021,-0.06,-0.123
1701525889.207,19.609,19.609,-19.609,0.0017000000000000001,-0.0009000000000000001,-0.036000000000000004,-0.028,-0.055,-0.112
1701525889.247,19.609,19.609,-19.609,0.0014,-0.0001,0.0167,0.001,-0.053,-0.116
1701525889.287,19.609,19.609,-19.609,0.0,-0.001,-0.0397,-0.002,-0.049,-0.115
1701525889.327,19.609,19.609,-19.609,-0.0008,0.0,0.0396,-0.003,-0.053,-0.105
1701525889.367,19.609,19.609,-19.609,-0.0009000000000000001,0.0005,-0.0322,0.018000000000000002,-0.045,-0.116
1701525889.407,19.609,19.609,-19.609,-0.0029000000000000002,-0.0015,0.02,-0.009000000000000001,-0.04,-0.111
1701525889.447,19.609,19.609,-19.609,-0.0009000000000000001,-0.0004,-0.038200000000000005,-0.018000000000000002,-0.039,-0.114
1701525889.487,19.609,19.609,-19.609,0.0012000000000000001,0.00030000000000000003,0.032100000000000004,0.001,-0.038,-0.124
1701525889.527,19.609,19.609,-19.609,-0.0006000000000000001,-0.0005,-0.0451,0.001,-0.041,-0.126
1701525889.567,19.609,19.609,-19.609,-0.0012000000000000001,-0.0017000000000000001,0.0409,-0.02,-0.032,-0.121
1701525889.607,19.609,19.609,-19.609,-0.0071,-0.0014,-0.051000000000000004,-0.007,-0.036000000000000004,-0.11800000000000001
1701525889.647,19.609,19.609,-19.609,-0.00030000000000000003,-0.0014,0.0471,-0.007,-0.041,-0.121
1701525889.687,19.609,19.609,-19.609,-0.0022,-0.0005,-0.0005,-0.009000000000000001,-0.038,-0.117
1701525889.727,19.609,19.609,-19.609,0.0019,0.001,-0.0354,0.0,-0.049,-0.106
1701525889.767,19.609,19.609,-19.609,0.0004,-0.0002,0.013900000000000001,-0.005,-0.04,-0.106
1701525889.807,19.609,19.609,-19.609,0.002,-0.0013000000000000002,0.0008,-0.005,-0.047,-0.094
1701525889.847,19.609,19.609,-19.609,0.0,-0.0004,0.0398,0.0,-0.04,-0.1
1701525889.8869998,19.609,19.609,-19.609,-0.001,0.0005,0.004,0.012,-0.045,-0.127
1701525889.927,19.609,19.609,-19.609,-0.00030000000000000003,0.0004,0.007,-0.023,-0.045,-0.121
1701525889.967,19.609,19.609,-19.609,-0.0022,-0.0004,0.0155,-0.022,-0.035,-0.11900000000000001
1701525890.007,19.609,19.609,-19.609,-0.0024000000000000002,-0.0018000000000000002,-0.0302,0.003,-0.043000000000000003,-0.116
1701525890.047,19.609,19.609,-19.609,-0.0015,-0.0013000000000000002,0.023100000000000002,0.001,-0.041,-0.11
1701525890.087,19.609,19.609,-19.609,-0.0045000000000000005,0.0021000000000000003,-0.0043,-0.012,-0.049,-0.095
1701525890.1269999,19.609,19.609,-19.609,-0.00030000000000000003,-0.0001,-0.056400000000000006,0.008,-0.039,-0.116
1701525890.167,19.609,19.609,-19.609,-0.0005,0.0004,-0.0359,-0.009000000000000001,-0.047,-0.11900000000000001
1701525890.207,19.609,19.609,-19.609,-0.0004,-0.0019,0.0651,-0.024,-0.045,-0.11900000000000001
1701525890.247,19.609,19.609,-19.609,0.0,-0.00030000000000000003,0.013600000000000001,-0.02,-0.049,-0.128
1701525890.287,19.609,19.609,-19.609,0.0012000000000000001,-0.0009000000000000001,-0.0346,-0.009000000000000001,-0.036000000000000004,-0.123
1701525890.327,19.609,19.609,-19.609,0.0001,-0.0025,0.0297,-0.027,-0.032,-0.12
1701525890.3669999,19.609,19.609,-19.609,-0.0023,-0.0014,-0.0437,-0.019,-0.035,-0.10400000000000001
1701525890.407,19.609,19.609,-19.609,0.0,0.0008,0.0379,-0.021,-0.053,-0.115
1701525890.447,19.609,19.609,-19.609,-0.0008,0.0002,0.0039000000000000003,-0.032,-0.044,-0.114
1701525890.487,19.609,19.609,-19.609,0.0,0.00030000000000000003,-0.056600000000000004,-0.024,-0.043000000000000003,-0.107
1701525890.527,19.609,19.609,-19.609,-0.0001,0.0004,0.047,-0.01,-0.021,-0.113
1701525890.567,19.609,19.609,-19.609,-0.0014,0.0,-0.0456,-0.013000000000000001,-0.034,-0.122
1701525890.6069999,19.609,19.609,-19.609,-0.0004,0.0015,0.0448,-0.006,-0.05,-0.113
1701525890.647,19.609,19.609,-19.609,-0.0009000000000000001,0.0001,-0.0361,-0.007,-0.053,-0.12
1701525890.687,19.609,19.609,-19.609,0.0004,0.0012000000000000001,0.0212,-0.02,-0.057,-0.115
1701525890.727,19.609,19.609,-19.609,-0.0034000000000000002,0.0018000000000000002,0.0007,-0.007,-0.045,-0.11900000000000001
1701525890.767,19.609,19.609,-19.609,-0.0001,0.00030000000000000003,-0.0392,-0.036000000000000004,-0.046,-0.123
1701525890.807,19.609,19.609,-19.609,-0.0002,0.0006000000000000001,0.0298,-0.023,-0.043000000000000003,-0.114
1701525890.847,19.609,19.609,-19.609,-0.0015,-0.0002,-0.041,-0.009000000000000001,-0.052000000000000005,-0.115
1701525890.887,19.609,19.609,-19.609,0.0,-0.0026000000000000003,0.0379,0.013000000000000001,-0.042,-0.11800000000000001
1701525890.927,19.609,19.609,-19.609,-0.0012000000000000001,0.0,-0.042100000000000005,-0.007,-0.067,-0.116
1701525890.967,19.609,19.609,-19.609,0.0019,0.0009000000000000001,0.038900000000000004,-0.009000000000000001,-0.051000000000000004,-0.12
1701525891.007,19.609,19.609,-19.609,-0.0004,-0.001,-0.038200000000000005,-0.009000000000000001,-0.066,-0.125
1701525891.047,19.609,19.609,-19.609,0.0,-0.0014,0.0284,-0.021,-0.045,-0.10300000000000001
1701525891.087,19.609,19.609,-19.609,-0.0005,0.0028,-0.049300000000000004,0.0,-0.043000000000000003,-0.10400000000000001
1701525891.127,19.609,19.609,-19.609,-0.0007,-0.0016,0.046700000000000005,0.003,-0.041,-0.108
1701525891.167,19.609,19.609,-19.609,-0.0012000000000000001,0.0013000000000000002,-0.0393,-0.001,-0.052000000000000005,-0.11
1701525891.207,19.609,19.609,-19.609,-0.00030000000000000003,-0.0001,0.027700000000000002,-0.004,-0.052000000000000005,-0.12
1701525891.247,19.609,19.609,-19.609,0.0011,0.0006000000000000001,-0.0403,0.0,-0.045,-0.121
1701525891.287,19.609,19.609,-19.609,0.0005,-0.0016,0.0359,-0.009000000000000001,-0.057,-0.11900000000000001
1701525891.327,19.609,19.609,-19.609,-0.0014,-0.0032,-0.0109,-0.01,-0.046,-0.111
1701525891.367,19.609,19.609,-19.609,0.0,0.0009000000000000001,-0.0009000000000000001,-0.003,-0.034,-0.122
1701525891.407,19.609,19.609,-19.609,0.0001,0.0007,-0.027100000000000003,-0.001,-0.043000000000000003,-0.12
1701525891.447,19.609,19.609,-19.609,0.0006000000000000001,0.0007,0.0323,-0.013000000000000001,-0.034,-0.12
1701525891.487,19.609,19.609,-19.609,-0.0013000000000000002,-0.0014,-0.0274,-0.005,-0.038,-0.127
1701525891.527,19.609,19.609,-19.609,-0.0018000000000000002,-0.0009000000000000001,0.009600000000000001,-0.007,-0.049,-0.139
1701525891.567,19.609,19.609,-19.609,0.0025,0.0025,0.030500000000000003,-0.017,-0.049,-0.12
1701525891.607,19.609,19.609,-19.609,0.0008,-0.0018000000000000002,-0.0417,-0.012,-0.052000000000000005,-0.127
1701525891.647,19.609,19.609,-19.609,0.0005,-0.00030000000000000003,0.007,-0.007,-0.042,-0.132
1701525891.687,19.609,19.609,-19.609,-0.0018000000000000002,0.0009000000000000001,0.038,-0.02,-0.047,-0.12
1701525891.727,19.609,19.609,-19.609,0.0001,0.0005,0.027,-0.021,-0.043000000000000003,-0.114
1701525891.767,19.609,19.609,-19.609,0.001,0.0016,-0.006,-0.017,-0.032,-0.105
1701525891.807,19.609,19.609,-19.609,0.0019,-0.0006000000000000001,0.0086,-0.001,-0.041,-0.098
1701525891.847,19.609,19.609,-19.609,-0.00030000000000000003,-0.0006000000000000001,-0.0323,0.016,-0.034,-0.097
1701525891.8869998,19.609,19.609,-19.609,-0.001,-0.0012000000000000001,0.0291,0.011,-0.027,-0.106
1701525891.927,19.609,19.609,-19.609,0.0,-0.0023,-0.031100000000000003,0.0,-0.04,-0.121
1701525891.967,19.609,19.609,-19.609,0.0004,0.0018000000000000002,0.0284,-0.008,-0.04,-0.13
1701525892.007,19.609,19.609,-19.609,-0.0004,-0.0001,-0.0379,-0.005,-0.037,-0.124
1701525892.047,19.609,19.609,-19.609,0.00030000000000000003,0.0008,0.020300000000000002,-0.008,-0.026000000000000002,-0.125
1701525892.087,19.609,19.609,-19.609,0.0015,-0.0027,-0.012400000000000001,0.002,-0.039,-0.10200000000000001
1701525892.1269999,19.609,19.609,-19.609,-0.0001,0.0013000000000000002,-0.016900000000000002,0.024,-0.038,-0.11800000000000001
1701525892.167,19.609,19.609,-19.609,0.0,-0.0013000000000000002,0.0159,0.007,-0.038,-0.136
1701525892.207,19.609,19.609,-19.609,0.0001,-0.0013000000000000002,0.0035,-0.018000000000000002,-0.061,-0.132
1701525892.247,19.609,19.609,-19.609,-0.0017000000000000001,0.0025,-0.0688,-0.027,-0.059000000000000004,-0.129
1701525892.287,19.609,19.609,-19.609,-0.0007,0.00030000000000000003,0.07050000000000001,-0.03,-0.057,-0.126
1701525892.327,19.609,19.609,-19.609,0.0017000000000000001,0.001,-0.0161,-0.001,-0.046,-0.116
1701525892.3669999,19.609,19.609,-19.609,-0.002,0.0012000000000000001,-0.0155,0.025,-0.025,-0.116
1701525892.407,19.609,19.609,-19.609,-0.0001,0.0008,0.019200000000000002,0.026000000000000002,-0.035,-0.111
1701525892.447,19.609,19.609,-19.609,-0.0007,-0.0014,-0.0397,-0.01,-0.053,-0.114
1701525892.487,19.609,19.609,-19.609,-0.0014,-0.0008,0.0323,-0.02,-0.054,-0.11900000000000001
1701525892.527,19.609,19.609,-19.609,-0.0009000000000000001,-0.0017000000000000001,0.0074,0.007,-0.045,-0.13
1701525892.567,19.609,19.609,-19.609,-0.0064,-0.0001,-0.0125,-0.025,-0.042,-0.133
1701525892.6069999,19.609,19.609,-19.609,0.0006000000000000001,-0.0005,-0.0568,-0.002,-0.046,-0.131
1701525892.647,19.609,19.609,-19.609,0.0,-0.0014,0.048,-0.007,-0.026000000000000002,-0.127
1701525892.687,19.609,19.609,-19.609,-0.0012000000000000001,0.00030000000000000003,-0.036500000000000005,-0.007,-0.029,-0.121
1701525892.727,19.609,19.609,-19.609,0.0004,0.0002,0.0332,0.001,-0.042,-0.121
1701525892.767,19.609,19.609,-19.609,-0.0013000000000000002,0.00030000000000000003,-0.0495,0.007,-0.043000000000000003,-0.117
1701525892.807,19.609,19.609,-19.609,-0.0009000000000000001,0.001,0.0444,-0.004,-0.051000000000000004,-0.127
1701525892.847,19.609,19.609,-19.609,0.001,0.0001,-0.0426,-0.015,-0.054,-0.11
1701525892.887,19.609,19.609,-19.609,0.0004,-0.0009000000000000001,0.0386,-0.002,-0.055,-0.113
1701525892.927,19.609,19.609,-19.609,-0.0006000000000000001,0.0005,-0.0236,0.003,-0.055,-0.126
1701525892.967,19.609,19.609,-19.609,0.0006000000000000001,0.0001,0.0222,-0.02,-0.051000000000000004,-0.121
1701525893.007,19.609,19.609,-19.609,0.0018000000000000002,-0.0013000000000000002,-0.010100000000000001,-0.02,-0.048,-0.121
1701525893.047,19.609,19.609,-19.609,0.0001,-0.0006000000000000001,0.0079,-0.035,-0.047,-0.11800000000000001
1701525893.087,19.609,19.609,-19.609,-0.0035,-0.00030000000000000003,-0.0296,-0.021,-0.052000000000000005,-0.111
1701525893.127,19.609,19.609,-19.609,-0.0007,0.0007,0.0236,-0.013000000000000001,-0.064,-0.108
1701525893.167,19.609,19.609,-19.609,-0.0006000000000000001,-0.0009000000000000001,-0.0023,-0.003,-0.051000000000000004,-0.115
1701525893.207,19.609,19.609,-19.609,-0.0001,-0.0004,-0.0325,-0.002,-0.048,-0.108
1701525893.247,19.609,19.609,-19.609,-0.0032,-0.0007,0.0217,-0.012,-0.041,-0.10300000000000001
1701525893.287,19.609,19.609,-19.609,-0.0001,-0.0021000000000000003,-0.061500000000000006,0.007,-0.039,-0.122
1701525893.327,19.609,19.609,-19.609,0.0019,0.0014,-0.0085,-0.009000000000000001,-0.03,-0.115
1701525893.367,19.609,19.609,-19.609,-0.0013000000000000002,-0.0002,0.0575,-0.027,-0.039,-0.11
1701525893.407,19.609,19.609,-19.609,0.0,-0.0009000000000000001,-0.0066,-0.015,-0.042,-0.11
1701525893.447,19.609,19.609,-19.609,-0.0014,0.00030000000000000003,-0.027700000000000002,-0.012,-0.04,-0.10200000000000001
1701525893.487,19.609,19.609,-19.609,-0.0011,0.001,-0.0373,0.001,-0.044,-0.10200000000000001
1701525893.527,19.609,19.609,-19.609,0.0001,-0.0004,0.0516,0.011,-0.038,-0.107
1701525893.567,19.609,19.609,-19.609,0.0001,0.00030000000000000003,-0.0145,0.0,-0.043000000000000003,-0.111
1701525893.607,19.609,19.609,-19.609,0.0,0.00030000000000000003,0.0119,-0.014,-0.03,-0.099
1701525893.647,19.609,19.609,-19.609,-0.0007,-0.0007,-0.008700000000000001,-0.01,-0.022,-0.116
1701525893.687,19.609,19.609,-19.609,0.0023,-0.0036000000000000003,-0.0239,-0.013000000000000001,-0.029,-0.116
1701525893.727,19.609,19.609,-19.609,-0.0025,0.0009000000000000001,0.0247,-0.012,-0.034,-0.115
1701525893.767,19.609,19.609,-19.609,-0.0029000000000000002,-0.0037,-0.043500000000000004,-0.002,-0.032,-0.113
1701525893.807,19.609,19.609,-19.609,0.0013000000000000002,0.0001,0.040100000000000004,0.01,-0.044,-0.12
1701525893.847,19.609,19.609,-19.609,0.0,0.0004,-0.0415,-0.017,-0.047,-0.112
1701525893.8869998,19.609,19.609,-19.609,-0.0002,0.0007,0.0285,0.0,-0.045,-0.116
1701525893.927,19.609,19.609,-19.609,0.0005,-0.0004,-0.0388,0.0,-0.045,-0.12
1701525893.967,19.609,19.609,-19.609,-0.0004,0.0009000000000000001,0.0309,-0.018000000000000002,-0.037,-0.12
1701525894.007,19.609,19.609,-19.609,0.002,0.00030000000000000003,-0.0303,-0.014,-0.05,-0.12
1701525894.047,19.609,19.609,-19.609,0.0005,0.0002,0.0309,-0.005,-0.053,-0.12
1701525894.087,19.609,19.609,-19.609,0.0015,-0.0011,0.0017000000000000001,-0.014,-0.044,-0.109
1701525894.1269999,19.609,19.609,-19.609,0.0013000000000000002,-0.0002,-0.0396,-0.006,-0.044,-0.11800000000000001
1701525894.167,19.609,19.609,-19.609,0.0014,-0.0008,0.0296,0.001,-0.044,-0.121
1701525894.207,19.609,19.609,-19.609,-0.0007,0.0019,-0.0313,-0.016,-0.037,-0.123
1701525894.247,19.609,19.609,-19.609,0.0005,-0.0012000000000000001,0.012,-0.028,-0.031,-0.12
1701525894.287,19.609,19.609,-19.609,-0.0009000000000000001,0.002,-0.0054,-0.013000000000000001,-0.03,-0.115
1701525894.327,19.609,19.609,-19.609,0.00030000000000000003,-0.002,0.0102,0.001,-0.034,-0.11800000000000001
1701525894.3669999,19.609,19.609,-19.609,-0.0004,-0.0007,-0.037700000000000004,0.003,-0.025,-0.105
1701525894.407,19.609,19.609,-19.609,-0.0012000000000000001,0.0,0.0187,-0.007,-0.023,-0.10400000000000001
1701525894.447,19.609,19.609,-19.609,-0.0004,-0.001,-0.0439,0.029,-0.031,-0.11
1701525894.487,19.609,19.609,-19.609,0.0009000000000000001,-0.0004,0.042,-0.017,-0.015,-0.116
1701525894.527,19.609,19.609,-19.609,0.0005,0.0007,-0.0275,-0.023,-0.01,-0.12
1701525894.567,19.609,19.609,-19.609,-0.002,0.0007,0.030500000000000003,-0.014,-0.013000000000000001,-0.109
1701525894.6069999,19.609,19.609,-19.609,0.0,-0.0015,-0.0041,-0.018000000000000002,0.018000000000000002,-0.10200000000000001
1701525894.647,19.609,19.609,-19.609,0.0002,0.0002,-0.033800000000000004,-0.013000000000000001,0.066,-0.08600000000000001
1701525894.687,19.609,19.609,-19.609,-0.002,0.0011,0.0078000000000000005,-0.007,0.055,-0.088
1701525894.727,19.609,19.609,-19.609,0.001,-0.001,0.009300000000000001,-0.014,0.023,-0.098
1701525894.767,19.609,19.609,-19.609,-0.0011,-0.0028,-0.0568,-0.009000000000000001,-0.003,-0.10200000000000001
1701525894.807,19.609,19.609,-19.609,0.0006000000000000001,0.0001,0.0529,0.0,-0.016,-0.114
1701525894.847,19.609,19.609,-19.609,0.0001,0.0004,-0.031,0.004,-0.005,-0.115
1701525894.887,19.609,19.609,-19.609,0.00030000000000000003,0.0021000000000000003,0.030500000000000003,0.0,0.008,-0.114
1701525894.927,19.609,19.609,-19.609,-0.001,-0.0012000000000000001,-0.042300000000000004,0.002,0.011,-0.113
1701525894.967,19.609,19.609,-19.609,-0.00030000000000000003,0.0008,0.0213,-0.01,0.028,-0.111
1701525895.007,19.609,19.609,-19.609,-0.0008,0.002,-0.007,-0.008,0.001,-0.106
1701525895.047,19.609,19.609,-19.609,-0.001,0.0013000000000000002,0.0004,0.002,-0.01,-0.095
1701525895.087,19.609,19.609,-19.609,-0.0006000000000000001,-0.0007,0.0078000000000000005,0.001,-0.024,-0.101
1701525895.127,19.609,19.609,-19.609,0.0009000000000000001,0.00030000000000000003,-0.0651,-0.01,-0.018000000000000002,-0.083
1701525895.167,19.609,19.609,-19.609,-0.0007,0.00030000000000000003,0.0591,0.0,-0.012,-0.091
1701525895.207,19.609,19.609,-19.609,0.0004,-0.0006000000000000001,-0.023,0.016,-0.008,-0.10400000000000001
1701525895.247,19.609,19.609,-19.609,-0.0021000000000000003,0.0008,0.0006000000000000001,-0.017,-0.005,-0.10200000000000001
1701525895.287,19.609,19.609,-19.609,-0.0029000000000000002,-0.0011,-0.0441,-0.024,0.008,-0.106
1701525895.327,19.609,19.609,-19.609,-0.0017000000000000001,-0.0021000000000000003,-0.0315,-0.016,0.014,-0.108
1701525895.367,19.609,19.609,-19.609,0.0001,0.0001,-0.0456,-0.006,0.019,-0.091
1701525895.407,19.609,19.609,-19.609,0.0004,-0.0038,0.0443,-0.016,0.023,-0.075
1701525895.447,19.609,19.609,-19.609,-0.0005,0.0009000000000000001,-0.0286,-0.02,0.035,-0.068
1701525895.487,19.609,19.609,-19.609,0.0008,-0.0001,0.0211,-0.01,0.067,-0.07
1701525895.527,19.609,19.609,-19.609,-0.0006000000000000001,0.0021000000000000003,-0.007200000000000001,-0.009000000000000001,0.111,-0.051000000000000004
1701525895.567,19.609,19.609,-19.609,-0.0004,-0.0027,0.0001,-0.018000000000000002,0.18,-0.011
1701525895.607,19.609,19.609,-19.609,-0.001,-0.0001,-0.0357,0.003,0.218,0.004
1701525895.647,19.609,19.609,-19.609,-0.00030000000000000003,0.0004,0.0402,0.034,0.20800000000000002,0.038
1701525895.687,19.609,19.609,-19.609,0.0004,-0.0019,-0.0349,0.036000000000000004,0.192,0.042
1701525895.727,19.609,19.609,-19.609,0.0,0.00030000000000000003,-0.022000000000000002,0.055,0.134,0.018000000000000002
1701525895.767,19.609,19.609,-19.609,-0.0006000000000000001,0.0001,0.0422,0.057,0.092,-0.02
1701525895.807,19.609,19.609,-19.609,-0.0014,0.00030000000000000003,-0.006200000000000001,0.054,0.058,-0.053
1701525895.847,19.609,19.609,-19.609,-0.001,0.0,0.0117,0.035,0.024,-0.063
1701525895.8869998,19.609,19.609,-19.609,0.0,0.0014,-0.0453,0.0,0.005,-0.073
1701525895.927,19.609,19.609,-19.609,-0.002,0.0001,0.0361,0.004,0.011,-0.078
1701525895.967,19.609,19.609,-19.609,-0.0002,-0.0004,-0.0023,0.017,-0.03,-0.091
1701525896.007,19.609,19.609,-19.609,-0.0014,-0.0006000000000000001,-0.027700000000000002,0.001,-0.034,-0.10400000000000001
1701525896.047,19.609,19.609,-19.609,-0.0005,0.0018000000000000002,0.0238,-0.017,-0.046,-0.098
1701525896.087,19.609,19.609,-19.609,-0.0015,-0.0005,-0.0025,-0.018000000000000002,-0.037,-0.111
1701525896.1269999,19.609,19.609,-19.609,-0.0025,-0.0001,-0.0407,0.008,-0.041,-0.12
1701525896.167,19.609,19.609,-19.609,0.0002,0.0017000000000000001,0.0342,0.006,-0.04,-0.117
1701525896.207,19.609,19.609,-19.609,0.0,0.0023,-0.0379,0.001,-0.051000000000000004,-0.121
1701525896.247,19.609,19.609,-19.609,-0.0017000000000000001,-0.0002,0.0241,0.009000000000000001,-0.046,-0.132
1701525896.287,19.609,19.609,-19.609,-0.0026000000000000003,0.0012000000000000001,0.0015,-0.003,-0.063,-0.14100000000000001
1701525896.327,19.609,19.609,-19.609,0.00030000000000000003,-0.001,-0.0422,0.015,-0.068,-0.148
1701525896.3669999,19.609,19.609,-19.609,-0.002,0.0023,0.027100000000000003,0.026000000000000002,-0.065,-0.153
1701525896.407,19.609,19.609,-19.609,-0.0001,-0.0001,-0.0068000000000000005,0.03,-0.075,-0.161
1701525896.447,19.609,19.609,-19.609,0.0034000000000000002,-0.0006000000000000001,-0.0219,-0.001,-0.074,-0.162
1701525896.487,19.609,19.609,-19.609,0.0026000000000000003,0.0007,0.0211,-0.029,-0.083,-0.154
1701525896.527,19.609,19.609,-19.609,-0.0024000000000000002,0.0,-0.033100000000000004,-0.042,-0.078,-0.159
1701525896.567,19.609,19.609,-19.609,0.00030000000000000003,-0.0007,-0.028,-0.038,-0.094,-0.17
1701525896.6069999,19.609,19.609,-19.609,0.0038,0.0002,0.0488,-0.061,-0.1,-0.17
1701525896.647,19.609,19.609,-19.609,0.001,0.0004,-0.045700000000000005,-0.07200000000000001,-0.101,-0.164
1701525896.687,19.609,19.609,-19.609,-0.0002,0.0005,0.036000000000000004,-0.05,-0.081,-0.153
1701525896.727,19.609,19.609,-19.609,-0.001,0.0011,-0.0419,-0.028,-0.061,-0.152
1701525896.767,19.609,19.609,-19.609,0.0018000000000000002,0.0011,0.035,-0.017,-0.062,-0.149
1701525896.807,19.609,19.609,-19.609,-0.0007,-0.0004,-0.0274,-0.027,-0.063,-0.14300000000000002
1701525896.847,19.609,19.609,-19.609,0.0008,0.0007,0.0223,-0.016,-0.064,-0.136
1701525896.887,19.609,19.609,-19.609,-0.0007,0.0,-0.0437,0.0,-0.085,-0.148
1701525896.927,19.609,19.609,-19.609,-0.0001,0.0013000000000000002,0.0324,-0.009000000000000001,-0.096,-0.14400000000000002
1701525896.967,19.609,19.609,-19.609,0.0004,0.0009000000000000001,-0.0398,-0.015,-0.083,-0.14300000000000002
1701525897.007,19.609,19.609,-19.609,-0.003,-0.0001,0.0347,-0.007,-0.081,-0.14300000000000002
1701525897.047,19.609,19.609,-19.609,-0.0009000000000000001,0.0017000000000000001,-0.0333,-0.009000000000000001,-0.073,-0.135
1701525897.087,19.609,19.609,-19.609,0.001,0.001,0.0043,0.0,-0.07,-0.131
1701525897.127,19.609,19.609,-19.609,-0.0026000000000000003,-0.0009000000000000001,-0.0502,0.0,-0.066,-0.125
1701525897.167,19.609,19.609,-19.609,-0.0012000000000000001,-0.0008,-0.0148,-0.006,-0.077,-0.131
1701525897.207,19.609,19.609,-19.609,-0.0044,-0.001,0.0206,-0.005,-0.088,-0.123
1701525897.247,19.609,19.609,-19.609,-0.0018000000000000002,0.0001,-0.027,-0.003,-0.082,-0.11900000000000001
1701525897.287,19.609,19.609,-19.609,-0.002,0.0002,0.0329,-0.009000000000000001,-0.08700000000000001,-0.117
1701525897.327,19.609,19.609,-19.609,-0.0015,-0.0012000000000000001,-0.040600000000000004,-0.001,-0.083,-0.116
1701525897.367,19.609,19.609,-19.609,0.0017000000000000001,0.0018000000000000002,0.0352,0.01,-0.078,-0.139
1701525897.407,19.609,19.609,-19.609,-0.0011,-0.0004,0.0114,-0.012,-0.08,-0.14200000000000002
1701525897.447,19.609,19.609,-19.609,-0.0007,-0.0002,-0.0448,-0.045,-0.078,-0.124
1701525897.487,19.609,19.609,-19.609,-0.0018000000000000002,0.0006000000000000001,0.027800000000000002,-0.017,-0.069,-0.136
1701525897.527,19.609,19.609,-19.609,0.0001,-0.001,0.0007,-0.005,-0.059000000000000004,-0.14200000000000002
1701525897.567,19.609,19.609,-19.609,0.00030000000000000003,-0.0007,-0.044000000000000004,-0.003,-0.06,-0.128
1701525897.607,19.609,19.609,-19.609,0.0001,0.0017000000000000001,0.026500000000000003,-0.004,-0.04,-0.127
1701525897.647,19.609,19.609,-19.609,-0.0007,-0.00030000000000000003,-0.0005,0.012,-0.048,-0.14
1701525897.687,19.609,19.609,-19.609,0.0002,0.0001,-0.064,0.0,-0.094,-0.12
1701525897.727,19.609,19.609,-19.609,-0.0015,-0.0002,0.0419,-0.002,-0.07200000000000001,-0.129
1701525897.767,19.609,19.609,-19.609,0.0027,-0.00030000000000000003,0.0076,0.005,-0.066,-0.134
1701525897.807,19.609,19.609,-19.609,0.001,-0.0001,-0.0471,-0.01,-0.07,-0.133
1701525897.847,19.609,19.609,-19.609,-0.0006000000000000001,-0.003,0.0487,-0.019,-0.057,-0.134
1701525897.8869998,19.609,19.609,-19.609,-0.0009000000000000001,-0.001,-0.027800000000000002,-0.012,-0.07,-0.131
1701525897.927,19.609,19.609,-19.609,0.0004,-0.00030000000000000003,0.0227,-0.012,-0.063,-0.137
1701525897.967,19.609,19.609,-19.609,0.0,0.0001,0.0017000000000000001,-0.009000000000000001,-0.055,-0.124
1701525898.007,19.609,19.609,-19.609,-0.0017000000000000001,0.0014,-0.0415,-0.009000000000000001,-0.04,-0.124
1701525898.047,19.609,19.609,-19.609,0.0007,-0.0017000000000000001,0.0239,-0.019,-0.036000000000000004,-0.11800000000000001
1701525898.087,19.609,19.609,-19.609,0.0004,0.0001,0.0048000000000000004,-0.001,-0.047,-0.11900000000000001
1701525898.1269999,19.609,19.609,-19.609,-0.0001,0.0,-0.0453,0.0,-0.091,-0.111
1701525898.167,19.609,19.609,-19.609,-0.0025,-0.001,0.029900000000000003,-0.021,-0.053,-0.105
1701525898.207,19.609,19.609,-19.609,-0.0027,0.0009000000000000001,0.008700000000000001,-0.007,-0.053,-0.078
1701525898.247,19.609,19.609,-19.609,-0.0002,0.0014,-0.0407,0.024,-0.027,-0.085
1701525898.287,19.609,19.609,-19.609,0.0019,-0.0005,0.0325,0.036000000000000004,-0.033,-0.092
1701525898.327,19.609,19.609,-19.609,0.0017000000000000001,-0.0007,-0.0001,0.001,-0.036000000000000004,-0.101
1701525898.3669999,19.609,19.609,-19.609,0.00030000000000000003,-0.0004,-0.0453,-0.006,-0.009000000000000001,-0.109
1701525898.407,19.609,19.609,-19.609,-0.00030000000000000003,0.0007,0.042100000000000005,-0.006,-0.051000000000000004,-0.125
1701525898.447,19.609,19.609,-19.609,0.001,0.0028,-0.0122,-0.01,-0.066,-0.123
1701525898.487,19.609,19.609,-19.609,0.0018000000000000002,-0.001,-0.058300000000000005,-0.003,-0.042,-0.109
1701525898.527,19.609,19.609,-19.609,-0.0006000000000000001,0.0001,0.049,0.008,-0.025,-0.116
1701525898.567,19.609,19.609,-19.609,0.0005,-0.0006000000000000001,-0.010400000000000001,0.001,-0.03,-0.116
1701525898.6069999,19.609,19.609,-19.609,0.0,0.0004,-0.0261,-0.003,-0.034,-0.11800000000000001
1701525898.647,19.609,19.609,-19.609,0.0004,0.0,0.028,-0.005,-0.034,-0.127
1701525898.687,19.609,19.609,-19.609,-0.0028,0.0009000000000000001,-0.06760000000000001,-0.009000000000000001,-0.042,-0.12
1701525898.727,19.609,19.609,-19.609,0.0015,0.0,0.0551,-0.01,-0.044,-0.11
1701525898.767,19.609,19.609,-19.609,-0.0005,0.0009000000000000001,-0.022500000000000003,0.0,-0.034,-0.109
1701525898.807,19.609,19.609,-19.609,-0.0001,-0.00030000000000000003,0.014100000000000001,0.006,-0.031,-0.10200000000000001
1701525898.847,19.609,19.609,-19.609,0.0008,0.0011,-0.0397,0.022,-0.033,-0.106
1701525898.887,19.609,19.609,-19.609,-0.001,-0.0001,0.0346,0.018000000000000002,-0.032,-0.117
1701525898.927,19.609,19.609,-19.609,-0.0013000000000000002,0.0,-0.0352,-0.009000000000000001,-0.047,-0.126
1701525898.967,19.609,19.609,-19.609,0.0,0.0005,0.0334,-0.038,-0.05,-0.11
1701525899.007,19.609,19.609,-19.609,-0.0012000000000000001,0.001,-0.0102,-0.002,-0.045,-0.111
1701525899.047,19.609,19.609,-19.609,0.0027,0.0006000000000000001,0.0117,0.019,-0.048,-0.121
1701525899.087,19.609,19.609,-19.609,-0.00030000000000000003,-0.0005,-0.031100000000000003,-0.004,-0.055,-0.121
1701525899.127,19.609,19.609,-19.609,0.0006000000000000001,0.001,0.0267,-0.017,-0.051000000000000004,-0.125
1701525899.167,19.609,19.609,-19.609,-0.0011,0.001,0.0099,-0.019,-0.051000000000000004,-0.128
1701525899.207,19.609,19.609,-19.609,-0.0037,0.0,-0.013800000000000002,-0.012,-0.045,-0.121
1701525899.247,19.609,19.609,-19.609,-0.0004,-0.0006000000000000001,-0.0027,0.005,-0.045,-0.113
1701525899.287,19.609,19.609,-19.609,-0.0004,-0.0011,0.0068000000000000005,0.003,-0.039,-0.109
1701525899.327,19.609,19.609,-19.609,-0.0017000000000000001,-0.0014,-0.043300000000000005,0.004,-0.064,-0.115
1701525899.367,19.609,19.609,-19.609,-0.0009000000000000001,0.0005,0.026000000000000002,-0.002,-0.046,-0.116
1701525899.407,19.609,19.609,-19.609,-0.0051,0.00030000000000000003,0.006500000000000001,-0.006,-0.056,-0.117
1701525899.447,19.609,19.609,-19.609,-0.0009000000000000001,-0.0004,-0.051000000000000004,-0.004,-0.05,-0.13
1701525899.487,19.609,19.609,-19.609,0.0004,0.0,0.0325,-0.013000000000000001,-0.049,-0.12
1701525899.527,19.609,19.609,-19.609,-0.0012000000000000001,0.00030000000000000003,-0.006500000000000001,-0.013000000000000001,-0.038,-0.11900000000000001
1701525899.567,19.609,19.609,-19.609,0.0019,-0.0006000000000000001,-0.00030000000000000003,-0.019,-0.026000000000000002,-0.11900000000000001
1701525899.607,19.609,19.609,-19.609,0.0,-0.0001,0.0085,-0.012,-0.028,-0.114
1701525899.647,19.609,19.609,-19.609,0.0012000000000000001,0.0009000000000000001,-0.04,-0.013000000000000001,-0.043000000000000003,-0.124
1701525899.687,19.609,19.609,-19.609,-0.0018000000000000002,0.0005,0.0407,-0.004,-0.058,-0.128
1701525899.727,19.609,19.609,-19.609,-0.0001,0.0001,-0.0043,-0.014,-0.052000000000000005,-0.111
1701525899.767,19.609,19.609,-19.609,-0.0006000000000000001,0.0006000000000000001,-0.0368,0.016,-0.045,-0.116
1701525899.807,19.609,19.609,-19.609,-0.0014,-0.00030000000000000003,0.023200000000000002,-0.006,-0.036000000000000004,-0.116
1701525899.847,19.609,19.609,-19.609,-0.0001,-0.00030000000000000003,0.010100000000000001,-0.016,-0.024,-0.10400000000000001
1701525899.8869998,19.609,19.609,-19.609,0.0,-0.0001,-0.0039000000000000003,-0.005,-0.016,-0.116
1701525899.927,19.609,19.609,-19.609,-0.0015,0.0007,0.0022,0.011,-0.028,-0.113
1701525899.967,19.609,19.609,-19.609,0.0,0.0012000000000000001,-0.0117,0.002,-0.047,-0.109
1701525900.007,19.609,19.609,-19.609,-0.0009000000000000001,-0.0007,0.019700000000000002,-0.006,-0.055,-0.107
1701525900.047,19.609,19.609,-19.609,-0.0024000000000000002,-0.0009000000000000001,-0.004,0.012,-0.048,-0.123
1701525900.087,19.609,19.609,-19.609,-0.0015,-0.0009000000000000001,-0.042300000000000004,0.003,-0.061,-0.11900000000000001
1701525900.1269999,19.609,19.609,-19.609,0.0008,0.0006000000000000001,0.0335,-0.011,-0.048,-0.113
1701525900.167,19.609,19.609,-19.609,-0.001,-0.0026000000000000003,0.0031000000000000003,-0.004,-0.05,-0.11800000000000001
1701525900.207,19.609,19.609,-19.609,0.0007,-0.001,-0.0604,-0.002,-0.047,-0.11900000000000001
1701525900.247,19.609,19.609,-19.609,-0.0002,0.001,0.047400000000000005,-0.012,-0.051000000000000004,-0.12
1701525900.287,19.609,19.609,-19.609,-0.0007,-0.0014,0.0059,-0.014,-0.057,-0.121
1701525900.327,19.609,19.609,-19.609,-0.0017000000000000001,0.0024000000000000002,-0.019,-0.009000000000000001,-0.055,-0.127
1701525900.3669999,19.609,19.609,-19.609,0.0013000000000000002,0.0015,0.004200000000000001,-0.016,-0.05,-0.126
1701525900.407,19.609,19.609,-19.609,-0.0012000000000000001,0.00030000000000000003,-0.026000000000000002,-0.015,-0.048,-0.115
1701525900.447,19.609,19.609,-19.609,0.0004,-0.002,0.016800000000000002,0.006,-0.045,-0.129
1701525900.487,19.609,19.609,-19.609,0.0004,-0.0023,0.007,-0.004,-0.046,-0.125
1701525900.527,19.609,19.609,-19.609,-0.0023,0.0001,-0.0014,-0.02,-0.041,-0.109
1701525900.567,19.609,19.609,-19.609,0.0004,-0.0014,-0.004,-0.007,-0.043000000000000003,-0.124
1701525900.6069999,19.609,19.609,-19.609,0.0025,-0.00030000000000000003,-0.0362,0.001,-0.052000000000000005,-0.133
1701525900.647,19.609,19.609,-19.609,0.0002,-0.0004,0.0219,-0.033,-0.058,-0.12
1701525900.687,19.609,19.609,-19.609,-0.0005,-0.0015,-0.0313,-0.023,-0.041,-0.121
1701525900.727,19.609,19.609,-19.609,0.0015,-0.0015,0.0337,-0.01,-0.057,-0.12
1701525900.767,19.609,19.609,-19.609,-0.0017000000000000001,-0.0015,-0.0526,-0.012,-0.061,-0.109
1701525900.807,19.609,19.609,-19.609,0.0024000000000000002,0.0004,-0.021500000000000002,-0.005,-0.062,-0.117
1701525900.847,19.609,19.609,-19.609,0.0002,-0.0008,0.040600000000000004,-0.011,-0.054,-0.132
1701525900.887,19.609,19.609,-19.609,0.0,-0.0024000000000000002,0.014,-0.032,-0.054,-0.13
1701525900.927,19.609,19.609,-19.609,-0.0001,-0.001,-0.0263,-0.035,-0.055,-0.136
1701525900.967,19.609,19.609,-19.609,0.0021000000000000003,-0.0006000000000000001,0.0165,-0.009000000000000001,-0.039,-0.129
1701525901.007,19.609,19.609,-19.609,0.0,-0.00030000000000000003,-0.0403,-0.01,-0.04,-0.125
1701525901.047,19.609,19.609,-19.609,-0.0022,0.00030000000000000003,0.031900000000000005,-0.029,-0.042,-0.127
1701525901.087,19.609,19.609,-19.609,0.0015,-0.0005,-0.009000000000000001,-0.015,-0.048,-0.129
1701525901.127,19.609,19.609,-19.609,0.0009000000000000001,-0.0024000000000000002,-0.0067,-0.017,-0.048,-0.132
1701525901.167,19.609,19.609,-19.609,-0.0011,0.0004,0.0098,-0.013000000000000001,-0.051000000000000004,-0.124
1701525901.207,19.609,19.609,-19.609,0.00030000000000000003,-0.0032,-0.0621,-0.005,-0.049,-0.13
1701525901.247,19.609,19.609,-19.609,0.0009000000000000001,0.0013000000000000002,0.0509,-0.004,-0.051000000000000004,-0.127
1701525901.287,19.609,19.609,-19.609,-0.002,0.0016,0.0036000000000000003,-0.028,-0.047,-0.108
1701525901.327,19.609,19.609,-19.609,-0.00030000000000000003,0.001,-0.048100000000000004,-0.017,-0.027,-0.105
1701525901.367,19.609,19.609,-19.609,-0.0004,-0.0004,0.0396,0.009000000000000001,-0.038,-0.123
1701525901.407,19.609,19.609,-19.609,0.0006000000000000001,0.002,-0.0284,0.011,-0.036000000000000004,-0.112
1701525901.447,19.609,19.609,-19.609,0.0016,0.0,0.0033,-0.015,-0.04,-0.116
1701525901.487,19.609,19.609,-19.609,-0.001,0.0007,-0.0252,-0.009000000000000001,-0.056,-0.117
1701525901.527,19.609,19.609,-19.609,0.0,-0.0017000000000000001,0.0347,0.0,-0.049,-0.11800000000000001
1701525901.567,19.609,19.609,-19.609,0.0005,0.0,-0.045700000000000005,-0.003,-0.049,-0.105
1701525901.607,19.609,19.609,-19.609,-0.0007,0.0009000000000000001,0.0161,0.001,-0.069,-0.113
1701525901.647,19.609,19.609,-19.609,0.0007,0.0004,-0.0665,-0.006,-0.043000000000000003,-0.121
1701525901.687,19.609,19.609,-19.609,0.0,0.001,0.085,-0.016,-0.034,-0.112
1701525901.727,19.609,19.609,-19.609,-0.0017000000000000001,-0.001,-0.046200000000000005,-0.01,-0.033,-0.114
1701525901.767,19.609,19.609,-19.609,0.0013000000000000002,0.0009000000000000001,0.0397,-0.002,-0.042,-0.12
1701525901.807,19.609,19.609,-19.609,0.0002,-0.0025,-0.0007,-0.007,-0.049,-0.115
1701525901.847,19.609,19.609,-19.609,-0.0017000000000000001,-0.0018000000000000002,-0.0397,-0.01,-0.052000000000000005,-0.106
1701525901.8869998,19.609,19.609,-19.609,-0.004200000000000001,-0.0007,0.0354,-0.017,-0.043000000000000003,-0.10400000000000001
1701525901.927,19.609,19.609,-19.609,0.0002,0.0022,-0.0251,-0.01,-0.038,-0.093
1701525901.967,19.609,19.609,-19.609,0.0,0.0012000000000000001,-0.0256,-0.009000000000000001,-0.027,-0.092
1701525902.007,19.609,19.609,-19.609,-0.0006000000000000001,0.0,0.043500000000000004,0.021,-0.025,-0.093
1701525902.047,19.609,19.609,-19.609,-0.0008,-0.0009000000000000001,-0.031400000000000004,0.015,-0.033,-0.098
1701525902.087,19.609,19.609,-19.609,0.0012000000000000001,0.00030000000000000003,0.0344,0.015,-0.035,-0.099
1701525902.1269999,19.609,19.609,-19.609,-0.0006000000000000001,0.0002,-0.039400000000000004,0.002,-0.038,-0.115
1701525902.167,19.609,19.609,-19.609,-0.0016,-0.0019,0.0385,-0.015,-0.047,-0.12
1701525902.207,19.609,19.609,-19.609,-0.0009000000000000001,0.0009000000000000001,-0.0443,-0.025,-0.038,-0.11900000000000001
1701525902.247,19.609,19.609,-19.609,0.00030000000000000003,0.0,0.0371,-0.01,-0.027,-0.127
1701525902.287,19.609,19.609,-19.609,-0.0037,0.00030000000000000003,-0.0398,-0.001,-0.046,-0.125
1701525902.327,19.609,19.609,-19.609,-0.0009000000000000001,-0.0005,0.0354,0.003,-0.053,-0.12
1701525902.3669999,19.609,19.609,-19.609,0.0004,-0.00030000000000000003,-0.0438,0.001,-0.053,-0.129
1701525902.407,19.609,19.609,-19.609,0.0004,0.0009000000000000001,-0.038,-0.011,-0.047,-0.127
1701525902.447,19.609,19.609,-19.609,0.00030000000000000003,0.0019,0.054200000000000005,-0.02,-0.051000000000000004,-0.11
1701525902.487,19.609,19.609,-19.609,-0.0007,-0.0009000000000000001,-0.055600000000000004,-0.011,-0.044,-0.094
1701525902.527,19.609,19.609,-19.609,-0.0017000000000000001,0.0009000000000000001,0.0551,0.02,-0.026000000000000002,-0.061
1701525902.567,19.609,19.609,-19.609,-0.0023,0.0023,-0.0227,0.044,-0.026000000000000002,-0.064
1701525902.6069999,19.609,19.609,-19.609,-0.0007,0.0,0.0408,0.049,-0.038,-0.094
1701525902.647,19.609,19.609,-19.609,0.0,0.0018000000000000002,-0.023200000000000002,0.025,-0.046,-0.113
1701525902.687,19.609,19.609,-19.609,-0.0009000000000000001,-0.0001,-0.0148,-0.022,-0.046,-0.12
1701525902.727,19.609,19.609,-19.609,0.0015,-0.0001,0.0244,-0.032,-0.045,-0.116
1701525902.767,19.609,19.609,-19.609,-0.0014,0.0,-0.0257,-0.009000000000000001,-0.043000000000000003,-0.116
1701525902.807,19.609,19.609,-19.609,-0.0001,-0.0002,0.0039000000000000003,-0.005,-0.048,-0.109
1701525902.847,19.609,19.609,-19.609,-0.0006000000000000001,0.0,-0.0184,0.002,-0.045,-0.08700000000000001
1701525902.887,19.609,19.609,-19.609,0.0006000000000000001,0.0004,0.0222,0.024,-0.032,-0.098
1701525902.927,19.609,19.609,-19.609,-0.0018000000000000002,0.0006000000000000001,-0.028900000000000002,0.018000000000000002,-0.034,-0.117
1701525902.967,19.609,19.609,-19.609,0.0016,0.0014,0.0279,-0.004,-0.039,-0.123
1701525903.007,19.609,19.609,-19.609,-0.0015,0.0007,-0.0009000000000000001,-0.032,-0.028,-0.148
1701525903.047,19.609,19.609,-19.609,-0.001,-0.0014,-0.0187,-0.037,-0.04,-0.151
1701525903.087,19.609,19.609,-19.609,-0.0012000000000000001,-0.0009000000000000001,0.0022,-0.032,-0.054,-0.124
1701525903.127,19.609,19.609,-19.609,-0.0008,-0.0018000000000000002,0.019,-0.013000000000000001,-0.041,-0.111
1701525903.167,19.609,19.609,-19.609,-0.0029000000000000002,-0.0023,-0.006500000000000001,0.007,-0.04,-0.106
1701525903.207,19.609,19.609,-19.609,-0.001,0.0004,-0.007500000000000001,0.016,-0.058,-0.098
1701525903.247,19.609,19.609,-19.609,-0.0028,0.0007,-0.0089,0.008,-0.052000000000000005,-0.107
1701525903.287,19.609,19.609,-19.609,-0.0004,-0.0009000000000000001,0.006200000000000001,0.005,-0.057,-0.124
1701525903.327,19.609,19.609,-19.609,-0.0013000000000000002,-0.0019,-0.0371,-0.006,-0.055,-0.13
1701525903.367,19.609,19.609,-19.609,-0.0017000000000000001,-0.0015,-0.0364,-0.023,-0.04,-0.132
1701525903.407,19.609,19.609,-19.609,-0.001,-0.0001,0.060500000000000005,-0.018000000000000002,-0.052000000000000005,-0.123
1701525903.447,19.609,19.609,-19.609,0.0002,-0.0004,-0.052700000000000004,-0.019,-0.045,-0.127
1701525903.487,19.609,19.609,-19.609,-0.0002,-0.00030000000000000003,0.0466,-0.012,-0.044,-0.11900000000000001
1701525903.527,19.609,19.609,-19.609,-0.0006000000000000001,0.0001,-0.0068000000000000005,0.003,-0.044,-0.114
1701525903.567,19.609,19.609,-19.609,-0.0035,0.0005,-0.0307,-0.007,-0.052000000000000005,-0.126
1701525903.607,19.609,19.609,-19.609,0.001,-0.0011,0.0183,0.0,-0.054,-0.115
1701525903.647,19.609,19.609,-19.609,-0.001,0.0014,-0.0264,-0.019,-0.043000000000000003,-0.127
1701525903.687,19.609,19.609,-19.609,-0.0018000000000000002,-0.0008,0.020200000000000003,-0.018000000000000002,-0.056,-0.136
1701525903.727,19.609,19.609,-19.609,0.0007,0.0008,-0.0086,-0.043000000000000003,-0.067,-0.14200000000000002
1701525903.767,19.609,19.609,-19.609,-0.001,0.0005,0.010700000000000001,-0.043000000000000003,-0.066,-0.129
1701525903.807,19.609,19.609,-19.609,-0.0022,0.0014,-0.0105,-0.003,-0.06,-0.126
1701525903.847,19.609,19.609,-19.609,-0.0007,-0.0006000000000000001,-0.050100000000000006,0.015,-0.059000000000000004,-0.117
1701525903.8869998,19.609,19.609,-19.609,0.00030000000000000003,0.0007,0.0478,0.004,-0.061,-0.112
1701525903.927,19.609,19.609,-19.609,0.0011,-0.0014,-0.0352,-0.001,-0.045,-0.113
1701525903.967,19.609,19.609,-19.609,0.004,0.0001,0.0252,0.004,-0.046,-0.124
1701525904.007,19.609,19.609,-19.609,0.0026000000000000003,-0.00030000000000000003,0.0015,-0.008,-0.048,-0.122
1701525904.047,19.609,19.609,-19.609,-0.0028,0.0006000000000000001,-0.033,0.003,-0.041,-0.124
1701525904.087,19.609,19.609,-19.609,0.0022,-0.00030000000000000003,0.0199,-0.004,-0.039,-0.116
1701525904.1269999,19.609,19.609,-19.609,0.00030000000000000003,-0.0016,-0.0014,-0.002,-0.031,-0.113
1701525904.167,19.609,19.609,-19.609,0.0032,-0.0014,-0.009000000000000001,-0.003,-0.041,-0.114
1701525904.207,19.609,19.609,-19.609,-0.0015,0.0002,0.0036000000000000003,0.0,-0.04,-0.116
1701525904.247,19.609,19.609,-19.609,-0.0009000000000000001,-0.0001,-0.020900000000000002,-0.003,-0.041,-0.112
1701525904.287,19.609,19.609,-19.609,-0.0013000000000000002,0.0022,-0.029400000000000003,0.0,-0.05,-0.111
1701525904.327,19.609,19.609,-19.609,0.0022,-0.0032,0.0386,0.0,-0.053,-0.121
1701525904.3669999,19.609,19.609,-19.609,-0.0004,-0.0004,-0.0234,-0.021,-0.05,-0.112
1701525904.407,19.609,19.609,-19.609,0.0011,-0.0012000000000000001,-0.0088,-0.007,-0.053,-0.108
1701525904.447,19.609,19.609,-19.609,0.0014,0.0018000000000000002,0.0057,0.001,-0.046,-0.116
1701525904.487,19.609,19.609,-19.609,-0.0001,-0.0007,-0.0026000000000000003,-0.006,-0.05,-0.11800000000000001
1701525904.527,19.609,19.609,-19.609,-0.0014,-0.0026000000000000003,-0.031900000000000005,-0.013000000000000001,-0.051000000000000004,-0.113
1701525904.567,19.609,19.609,-19.609,0.0,0.0031000000000000003,0.040400000000000005,-0.006,-0.062,-0.124
1701525904.6069999,19.609,19.609,-19.609,-0.0006000000000000001,-0.0005,-0.0356,-0.006,-0.074,-0.137
1701525904.647,19.609,19.609,-19.609,0.005,0.00030000000000000003,0.0256,-0.02,-0.073,-0.13
1701525904.687,19.609,19.609,-19.609,0.0002,-0.00030000000000000003,-0.0009000000000000001,-0.007,-0.062,-0.125
1701525904.727,19.609,19.609,-19.609,-0.001,0.0001,-0.020200000000000003,0.013000000000000001,-0.043000000000000003,-0.129
1701525904.767,19.609,19.609,-19.609,-0.00030000000000000003,0.0009000000000000001,-0.0565,-0.006,-0.054,-0.11900000000000001
1701525904.807,19.609,19.609,-19.609,0.0002,0.0012000000000000001,0.06810000000000001,-0.034,-0.048,-0.128
1701525904.847,19.609,19.609,-19.609,0.0,0.0007,-0.0025,-0.02,-0.038,-0.138
1701525904.887,19.609,19.609,-19.609,0.0001,0.0007,-0.038700000000000005,-0.019,-0.043000000000000003,-0.131
1701525904.927,19.609,19.609,-19.609,0.0006000000000000001,0.0011,0.015300000000000001,-0.011,-0.042,-0.121
1701525904.967,19.609,19.609,-19.609,-0.0015,0.0007,-0.0122,0.0,-0.034,-0.121
1701525905.007,19.609,19.609,-19.609,0.0012000000000000001,0.0014,0.0158,-0.012,-0.034,-0.116
1701525905.047,19.609,19.609,-19.609,-0.0022,0.00030000000000000003,-0.051300000000000005,-0.057,-0.038,-0.1
1701525905.087,19.609,19.609,-19.609,0.0,0.00030000000000000003,0.0449,-0.017,-0.038,-0.095
1701525905.127,19.609,19.609,-19.609,0.0002,0.0002,0.0017000000000000001,0.0,-0.047,-0.083
1701525905.167,19.609,19.609,-19.609,-0.0004,0.0006000000000000001,-0.0222,0.016,-0.027,-0.082
1701525905.207,19.609,19.609,-19.609,-0.0019,0.0007,-0.0538,0.02,-0.018000000000000002,-0.094
1701525905.247,19.609,19.609,-19.609,-0.0037,-0.0031000000000000003,0.043300000000000005,0.014,-0.026000000000000002,-0.107
1701525905.287,19.609,19.609,-19.609,-0.0008,-0.001,-0.022000000000000002,-0.029,-0.036000000000000004,-0.111
1701525905.327,19.609,19.609,-19.609,-0.0004,0.00030000000000000003,0.032,-0.026000000000000002,-0.031,-0.113
1701525905.367,19.609,19.609,-19.609,0.0004,0.0004,0.0054,-0.003,-0.05,-0.113
1701525905.407,19.609,19.609,-19.609,0.0,-0.0011,-0.0204,0.001,-0.057,-0.101
1701525905.447,19.609,19.609,-19.609,-0.0023,-0.00030000000000000003,-0.011300000000000001,0.016,-0.061,-0.106
1701525905.487,19.609,19.609,-19.609,-0.0021000000000000003,0.0007,0.0219,0.017,-0.046,-0.117
1701525905.527,19.609,19.609,-19.609,0.0004,0.0015,-0.013600000000000001,-0.014,-0.047,-0.114
1701525905.567,19.609,19.609,-19.609,0.0,0.0004,-0.0025,-0.018000000000000002,-0.047,-0.132
1701525905.607,19.609,19.609,-19.609,0.001,-0.0001,0.0009000000000000001,-0.013000000000000001,-0.035,-0.129
1701525905.647,19.609,19.609,-19.609,0.0008,0.0004,0.0061,-0.037,-0.045,-0.125
1701525905.687,19.609,19.609,-19.609,-0.0017000000000000001,-0.0017000000000000001,-0.0183,-0.01,-0.043000000000000003,-0.10400000000000001
1701525905.727,19.609,19.609,-19.609,0.0014,0.001,0.0132,-0.007,-0.041,-0.10200000000000001
1701525905.767,19.609,19.609,-19.609,0.0008,0.00030000000000000003,-0.0511,0.016,-0.041,-0.089
1701525905.807,19.609,19.609,-19.609,-0.0004,0.0014,0.043500000000000004,0.027,-0.03,-0.10300000000000001
1701525905.847,19.609,19.609,-19.609,-0.0015,-0.0009000000000000001,-0.034300000000000004,0.029,-0.032,-0.11
1701525905.8869998,19.609,19.609,-19.609,-0.0009000000000000001,0.0009000000000000001,0.016300000000000002,0.001,-0.034,-0.146
1701525905.927,19.609,19.609,-19.609,0.0005,0.0017000000000000001,0.006500000000000001,-0.032,-0.037,-0.134
1701525905.967,19.609,19.609,-19.609,-0.0022,-0.0014,0.004200000000000001,-0.033,-0.033,-0.139
1701525906.007,19.609,19.609,-19.609,0.0,-0.0013000000000000002,-0.05,-0.021,-0.043000000000000003,-0.135
1701525906.047,19.609,19.609,-19.609,0.0008,-0.0006000000000000001,0.0333,-0.024,-0.054,-0.123
1701525906.087,19.609,19.609,-19.609,-0.0012000000000000001,-0.0014,-0.012,0.0,-0.045,-0.11800000000000001
1701525906.1269999,19.609,19.609,-19.609,-0.0007,-0.0009000000000000001,0.007200000000000001,0.01,-0.036000000000000004,-0.127
1701525906.167,19.609,19.609,-19.609,-0.0001,-0.0006000000000000001,-0.033800000000000004,0.004,-0.041,-0.134
1701525906.207,19.609,19.609,-19.609,-0.00030000000000000003,-0.0009000000000000001,0.0109,-0.015,-0.04,-0.129
1701525906.247,19.609,19.609,-19.609,-0.0007,-0.0007,-0.0158,-0.01,-0.035,-0.139
1701525906.287,19.609,19.609,-19.609,-0.0007,0.0001,-0.0183,-0.016,-0.045,-0.14300000000000002
1701525906.327,19.609,19.609,-19.609,-0.0039000000000000003,-0.0004,-0.0316,-0.039,-0.064,-0.122
1701525906.3669999,19.609,19.609,-19.609,-0.0009000000000000001,0.0006000000000000001,0.0287,-0.007,-0.055,-0.121
1701525906.407,19.609,19.609,-19.609,-0.0018000000000000002,0.002,-0.0507,0.005,-0.046,-0.112
1701525906.447,19.609,19.609,-19.609,0.0018000000000000002,0.0013000000000000002,0.0466,-0.003,-0.05,-0.094
1701525906.487,19.609,19.609,-19.609,0.0044,-0.0008,-0.0183,0.007,-0.054,-0.092
1701525906.527,19.609,19.609,-19.609,0.0014,0.0008,0.0039000000000000003,-0.007,-0.054,-0.097
1701525906.567,19.609,19.609,-19.609,-0.0015,0.0015,-0.0007,-0.023,-0.053,-0.10200000000000001
1701525906.6069999,19.609,19.609,-19.609,-0.0002,0.0001,-0.0005,0.004,-0.05,-0.10200000000000001
1701525906.647,19.609,19.609,-19.609,0.0001,0.0024000000000000002,-0.033600000000000005,-0.002,-0.048,-0.12
1701525906.687,19.609,19.609,-19.609,-0.0012000000000000001,0.0004,0.0235,-0.018000000000000002,-0.036000000000000004,-0.10400000000000001
1701525906.727,19.609,19.609,-19.609,-0.0006000000000000001,-0.0011,-0.0122,-0.01,-0.041,-0.098
1701525906.767,19.609,19.609,-19.609,0.0001,-0.0013000000000000002,-0.058100000000000006,0.009000000000000001,-0.048,-0.113
1701525906.807,19.609,19.609,-19.609,0.00030000000000000003,-0.0001,0.0354,-0.002,-0.046,-0.111
1701525906.847,19.609,19.609,-19.609,0.0006000000000000001,-0.0018000000000000002,0.0204,-0.022,-0.043000000000000003,-0.10200000000000001
1701525906.887,19.609,19.609,-19.609,-0.0007,0.0007,-0.0442,-0.021,-0.037,-0.12
1701525906.927,19.609,19.609,-19.609,-0.0024000000000000002,-0.0001,0.0405,-0.004,-0.041,-0.125
1701525906.967,19.609,19.609,-19.609,-0.002,0.0012000000000000001,-0.025900000000000003,-0.011,-0.05,-0.121
1701525907.007,19.609,19.609,-19.609,0.001,-0.0017000000000000001,0.0238,-0.024,-0.045,-0.126
1701525907.047,19.609,19.609,-19.609,-0.0008,0.0004,-0.0109,0.002,-0.047,-0.123
1701525907.087,19.609,19.609,-19.609,-0.001,-0.0013000000000000002,-0.013000000000000001,-0.011,-0.051000000000000004,-0.116
1701525907.127,19.609,19.609,-19.609,0.0012000000000000001,0.0025,0.016800000000000002,-0.008,-0.05,-0.124
1701525907.167,19.609,19.609,-19.609,-0.0021000000000000003,0.0005,-0.0188,0.0,-0.047,-0.12
1701525907.207,19.609,19.609,-19.609,0.0009000000000000001,-0.002,0.0172,-0.006,-0.045,-0.112
1701525907.247,19.609,19.609,-19.609,-0.0012000000000000001,-0.0011,-0.0476,-0.026000000000000002,-0.054,-0.121
1701525907.287,19.609,19.609,-19.609,-0.004200000000000001,-0.0001,0.0383,-0.026000000000000002,-0.052000000000000005,-0.11800000000000001
1701525907.327,19.609,19.609,-19.609,0.00030000000000000003,0.00030000000000000003,-0.0199,-0.028,-0.061,-0.123
1701525907.367,19.609,19.609,-19.609,-0.0001,0.0007,0.0114,-0.025,-0.046,-0.11800000000000001
1701525907.407,19.609,19.609,-19.609,0.0009000000000000001,0.0008,-0.0446,-0.015,-0.076,-0.121
1701525907.447,19.609,19.609,-19.609,0.0006000000000000001,-0.002,0.047900000000000005,-0.012,-0.055,-0.113
1701525907.487,19.609,19.609,-19.609,-0.0016,0.0007,-0.046,-0.006,-0.024,-0.10300000000000001
1701525907.527,19.609,19.609,-19.609,-0.0004,-0.0001,0.0388,0.007,0.0,-0.111
1701525907.567,19.609,19.609,-19.609,0.0009000000000000001,0.0002,0.0029000000000000002,0.0,-0.02,-0.122
1701525907.607,19.609,19.609,-19.609,0.0006000000000000001,-0.0009000000000000001,-0.0323,-0.019,-0.031,-0.121
1701525907.647,19.609,19.609,-19.609,0.0004,-0.0007,0.018600000000000002,-0.017,-0.032,-0.12
1701525907.687,19.609,19.609,-19.609,-0.0004,-0.0018000000000000002,-0.039900000000000005,-0.011,-0.05,-0.127
1701525907.727,19.609,19.609,-19.609,0.0004,0.0,0.0335,0.0,-0.062,-0.117
1701525907.767,19.609,19.609,-19.609,0.0001,0.0021000000000000003,-0.041,0.004,-0.051000000000000004,-0.114
1701525907.807,19.609,19.609,-19.609,-0.0009000000000000001,0.0,0.0347,0.0,-0.047,-0.121
1701525907.847,19.609,19.609,-19.609,-0.0014,0.0001,0.0053,-0.021,-0.06,-0.116
1701525907.8869998,19.609,19.609,-19.609,-0.0013000000000000002,0.0014,-0.0204,-0.016,-0.048,-0.106
1701525907.927,19.609,19.609,-19.609,0.0011,0.0007,0.0057,0.002,-0.045,-0.093
1701525907.967,19.609,19.609,-19.609,0.0004,-0.0009000000000000001,0.0073,0.01,-0.038,-0.089
1701525908.007,19.609,19.609,-19.609,0.001,0.0004,-0.035,0.017,-0.027,-0.1
1701525908.047,19.609,19.609,-19.609,0.0015,-0.002,0.0263,0.011,-0.031,-0.101
1701525908.087,19.609,19.609,-19.609,-0.004200000000000001,0.00030000000000000003,0.0211,0.004,-0.042,-0.11800000000000001
1701525908.1269999,19.609,19.609,-19.609,-0.0002,-0.0006000000000000001,0.014400000000000001,-0.008,-0.048,-0.11900000000000001
1701525908.167,19.609,19.609,-19.609,-0.0036000000000000003,0.0004,-0.014700000000000001,-0.014,-0.053,-0.12
1701525908.207,19.609,19.609,-19.609,-0.0004,0.0005,0.0285,-0.011,-0.055,-0.13
1701525908.247,19.609,19.609,-19.609,0.0,-0.0023,-0.0502,-0.004,-0.042,-0.121
1701525908.287,19.609,19.609,-19.609,-0.0001,-0.0014,0.0422,0.004,-0.038,-0.11800000000000001
1701525908.327,19.609,19.609,-19.609,-0.0011,-0.0001,-0.0247,0.005,-0.036000000000000004,-0.127
1701525908.3669999,19.609,19.609,-19.609,0.0015,-0.0016,0.0146,-0.012,-0.031,-0.125
1701525908.407,19.609,19.609,-19.609,0.0008,0.0006000000000000001,-0.0344,-0.012,-0.04,-0.126
1701525908.447,19.609,19.609,-19.609,0.0005,-0.0012000000000000001,-0.0366,-0.009000000000000001,-0.051000000000000004,-0.14100000000000001
1701525908.487,19.609,19.609,-19.609,-0.0005,0.0014,0.0374,-0.018000000000000002,-0.06,-0.13
1701525908.527,19.609,19.609,-19.609,0.0017000000000000001,-0.0002,0.016300000000000002,-0.019,-0.06,-0.107
1701525908.567,19.609,19.609,-19.609,-0.0009000000000000001,-0.0012000000000000001,-0.0536,0.011,-0.046,-0.097
1701525908.6069999,19.609,19.609,-19.609,0.0015,0.0004,0.020900000000000002,0.023,-0.043000000000000003,-0.092
1701525908.647,19.609,19.609,-19.609,0.00030000000000000003,-0.0015,0.022600000000000002,0.011,-0.04,-0.099
1701525908.687,19.609,19.609,-19.609,0.001,-0.0009000000000000001,-0.031900000000000005,0.026000000000000002,-0.018000000000000002,-0.098
1701525908.727,19.609,19.609,-19.609,0.0006000000000000001,0.003,-0.0028,0.008,-0.001,-0.11800000000000001
1701525908.767,19.609,19.609,-19.609,0.0004,0.0007,0.0284,-0.02,-0.04,-0.129
1701525908.807,19.609,19.609,-19.609,0.0,0.0001,-0.02,-0.027,-0.037,-0.133
1701525908.847,19.609,19.609,-19.609,0.0,0.0001,0.015300000000000001,-0.001,-0.038,-0.123
1701525908.887,19.609,19.609,-19.609,-0.001,-0.0018000000000000002,-0.033800000000000004,-0.005,-0.044,-0.12
1701525908.927,19.609,19.609,-19.609,-0.0021000000000000003,0.00030000000000000003,0.0285,-0.003,-0.048,-0.111
1701525908.967,19.609,19.609,-19.609,0.0009000000000000001,-0.0026000000000000003,-0.0213,-0.004,-0.044,-0.124
1701525909.007,19.609,19.609,-19.609,0.0031000000000000003,-0.00030000000000000003,0.0029000000000000002,-0.013000000000000001,-0.039,-0.101
1701525909.047,19.609,19.609,-19.609,0.0009000000000000001,0.00030000000000000003,0.0123,0.008,-0.029,-0.125
1701525909.087,19.609,19.609,-19.609,0.0034000000000000002,0.00030000000000000003,0.0023,0.0,-0.035,-0.13
1701525909.127,19.609,19.609,-19.609,-0.0013000000000000002,0.0005,-0.0533,-0.025,-0.048,-0.125
1701525909.167,19.609,19.609,-19.609,-0.0002,-0.0023,0.0444,-0.012,-0.043000000000000003,-0.133
1701525909.207,19.609,19.609,-19.609,-0.0009000000000000001,-0.0007,-0.0164,0.0,-0.048,-0.128
1701525909.247,19.609,19.609,-19.609,0.0022,0.0012000000000000001,0.0134,-0.009000000000000001,-0.067,-0.121
1701525909.287,19.609,19.609,-19.609,0.0019,0.0008,-0.041600000000000005,-0.004,-0.05,-0.105
1701525909.327,19.609,19.609,-19.609,-0.0008,-0.001,0.027600000000000003,0.005,-0.053,-0.106
1701525909.367,19.609,19.609,-19.609,0.00030000000000000003,0.0022,-0.0403,0.015,-0.048,-0.11800000000000001
1701525909.407,19.609,19.609,-19.609,-0.0031000000000000003,0.0002,0.0275,-0.002,-0.049,-0.112
1701525909.447,19.609,19.609,-19.609,0.0015,-0.0008,-0.0327,-0.006,-0.05,-0.117
1701525909.487,19.609,19.609,-19.609,-0.0017000000000000001,0.0018000000000000002,0.0325,0.011,-0.05,-0.122
1701525909.527,19.609,19.609,-19.609,0.0008,0.00030000000000000003,-0.0455,-0.009000000000000001,-0.053,-0.122
1701525909.567,19.609,19.609,-19.609,-0.0014,-0.00030000000000000003,0.0315,-0.016,-0.053,-0.125
1701525909.607,19.609,19.609,-19.609,-0.0009000000000000001,-0.0002,-0.026500000000000003,-0.009000000000000001,-0.047,-0.121
1701525909.647,19.609,19.609,-19.609,-0.0018000000000000002,0.0008,0.0158,0.002,-0.046,-0.12
1701525909.687,19.609,19.609,-19.609,0.0015,-0.0014,0.0024000000000000002,-0.003,-0.047,-0.114
1701525909.727,19.609,19.609,-19.609,0.0009000000000000001,0.0015,-0.031,-0.005,-0.054,-0.12
1701525909.767,19.609,19.609,-19.609,-0.0023,0.0025,0.0252,-0.014,-0.052000000000000005,-0.112
1701525909.807,19.609,19.609,-19.609,-0.0006000000000000001,-0.002,0.005,-0.004,-0.044,-0.109
1701525909.847,19.609,19.609,-19.609,0.0018000000000000002,0.0005,-0.0555,0.005,-0.041,-0.124
1701525909.8869998,19.609,19.609,-19.609,-0.0001,0.0015,0.054,-0.011,-0.047,-0.114
1701525909.927,19.609,19.609,-19.609,-0.0005,0.0,-0.0733,-0.023,-0.038,-0.115
1701525909.967,19.609,19.609,-19.609,-0.00030000000000000003,-0.001,0.0285,-0.007,-0.038,-0.121
1701525910.007,19.609,19.609,-19.609,-0.0007,0.001,-0.0407,-0.011,-0.039,-0.115
1701525910.047,19.609,19.609,-19.609,-0.003,-0.00030000000000000003,0.024800000000000003,-0.005,-0.045,-0.11
1701525910.087,19.609,19.609,-19.609,-0.001,0.0001,-0.0148,0.014,-0.052000000000000005,-0.112
1701525910.1269999,19.609,19.609,-19.609,0.0026000000000000003,-0.0015,-0.024,0.0,-0.05,-0.115
1701525910.167,19.609,19.609,-19.609,0.0,-0.0005,0.030100000000000002,-0.01,-0.052000000000000005,-0.107
1701525910.207,19.609,19.609,-19.609,-0.0012000000000000001,-0.00030000000000000003,-0.004,-0.007,-0.034,-0.12
1701525910.247,19.609,19.609,-19.609,-0.0004,0.0029000000000000002,-0.0023,-0.014,-0.034,-0.11800000000000001
1701525910.287,19.609,19.609,-19.609,0.0028,-0.0012000000000000001,-0.048,-0.025,-0.043000000000000003,-0.112
1701525910.327,19.609,19.609,-19.609,-0.0018000000000000002,0.001,0.0366,-0.004,-0.045,-0.115
1701525910.3669999,19.609,19.609,-19.609,0.0018000000000000002,0.0025,0.0,0.015,-0.023,-0.10400000000000001
1701525910.407,19.609,19.609,-19.609,-0.0026000000000000003,0.0001,-0.044500000000000005,-0.008,-0.049,-0.106
1701525910.447,19.609,19.609,-19.609,-0.001,0.0017000000000000001,0.0257,-0.013000000000000001,-0.048,-0.109
1701525910.487,19.609,19.609,-19.609,-0.0011,-0.001,0.0132,-0.017,-0.036000000000000004,-0.12
1701525910.527,19.609,19.609,-19.609,-0.0015,0.0001,-0.04,-0.02,-0.026000000000000002,-0.11900000000000001
1701525910.567,19.609,19.609,-19.609,-0.0024000000000000002,0.001,0.028,-0.011,-0.02,-0.094
1701525910.6069999,19.609,19.609,-19.609,-0.00030000000000000003,-0.003,-0.0039000000000000003,-0.024,-0.026000000000000002,-0.111
1701525910.647,19.609,19.609,-19.609,0.0009000000000000001,0.0,-0.014,-0.015,-0.068,-0.108
1701525910.687,19.609,19.609,-19.609,-0.0023,-0.0004,-0.0009000000000000001,-0.025,-0.052000000000000005,-0.10300000000000001
1701525910.727,19.609,19.609,-19.609,-0.0015,-0.0001,-0.04,0.004,-0.038,-0.116
1701525910.767,19.609,19.609,-19.609,0.0,0.0018000000000000002,0.0429,0.003,-0.046,-0.12
1701525910.807,19.609,19.609,-19.609,0.0001,0.0,-0.0524,-0.022,-0.059000000000000004,-0.11
1701525910.847,19.609,19.609,-19.609,-0.0007,0.0006000000000000001,0.049800000000000004,-0.01,-0.044,-0.125
1701525910.887,19.609,19.609,-19.609,0.0,0.0004,-0.0176,-0.015,-0.047,-0.11900000000000001
1701525910.927,19.609,19.609,-19.609,0.0,0.0007,0.014,-0.019,-0.058,-0.121
1701525910.967,19.609,19.609,-19.609,0.0001,0.0004,-0.0582,-0.008,-0.044,-0.124
1701525911.007,19.609,19.609,-19.609,-0.0016,-0.0004,0.0482,-0.017,-0.033,-0.11
1701525911.047,19.609,19.609,-19.609,-0.0019,-0.001,-0.0233,-0.013000000000000001,-0.069,-0.10400000000000001
1701525911.087,19.609,19.609,-19.609,0.0004,0.0,0.0092,-0.008,-0.02,-0.091
1701525911.127,19.609,19.609,-19.609,-0.00030000000000000003,0.002,-0.040100000000000004,0.012,-0.025,-0.082
1701525911.167,19.609,19.609,-19.609,0.00030000000000000003,0.0006000000000000001,0.0385,0.012,-0.028,-0.097
1701525911.207,19.609,19.609,-19.609,-0.0007,-0.0009000000000000001,-0.0081,0.006,-0.034,-0.115
1701525911.247,19.609,19.609,-19.609,0.00030000000000000003,-0.0009000000000000001,-0.0032,-0.017,-0.048,-0.126
1701525911.287,19.609,19.609,-19.609,-0.0001,0.0009000000000000001,-0.0064,-0.015,-0.048,-0.124
1701525911.327,19.609,19.609,-19.609,-0.0019,-0.0023,0.0031000000000000003,-0.014,-0.031,-0.123
1701525911.367,19.609,19.609,-19.609,-0.0004,0.0013000000000000002,0.0106,-0.006,-0.029,-0.117
1701525911.407,19.609,19.609,-19.609,0.0001,0.0,-0.0429,-0.008,-0.036000000000000004,-0.11800000000000001
1701525911.447,19.609,19.609,-19.609,-0.0005,-0.00030000000000000003,0.0275,-0.001,-0.039,-0.121
1701525911.487,19.609,19.609,-19.609,-0.0001,0.0026000000000000003,0.0095,0.005,-0.047,-0.125
1701525911.527,19.609,19.609,-19.609,-0.0007,-0.0012000000000000001,-0.029900000000000003,-0.007,-0.065,-0.124
1701525911.567,19.609,19.609,-19.609,0.0001,0.0,0.0041,-0.008,-0.056,-0.125
1701525911.607,19.609,19.609,-19.609,0.0004,0.0014,0.0181,-0.004,-0.041,-0.131
1701525911.647,19.609,19.609,-19.609,-0.0008,-0.0009000000000000001,-0.0247,-0.02,-0.04,-0.111
1701525911.687,19.609,19.609,-19.609,0.0006000000000000001,0.0006000000000000001,0.0082,-0.023,-0.041,-0.09
1701525911.727,19.609,19.609,-19.609,-0.001,-0.0015,-0.0502,0.017,-0.036000000000000004,-0.099
1701525911.767,19.609,19.609,-19.609,0.0004,0.0024000000000000002,-0.0267,0.023,-0.026000000000000002,-0.092
1701525911.807,19.609,19.609,-19.609,-0.0029000000000000002,0.0001,0.044700000000000004,0.018000000000000002,-0.027,-0.095
1701525911.847,19.609,19.609,-19.609,0.0012000000000000001,-0.00030000000000000003,-0.0292,0.014,-0.018000000000000002,-0.115
1701525911.8869998,19.609,19.609,-19.609,0.001,0.0001,0.026600000000000002,-0.022,-0.007,-0.12
1701525911.927,19.609,19.609,-19.609,-0.0013000000000000002,-0.001,-0.0349,-0.037,-0.02,-0.117
1701525911.967,19.609,19.609,-19.609,0.0026000000000000003,-0.0012000000000000001,0.027700000000000002,0.0,-0.023,-0.116
1701525912.007,19.609,19.609,-19.609,0.0009000000000000001,-0.0016,-0.0057,0.008,-0.036000000000000004,-0.11900000000000001
1701525912.047,19.609,19.609,-19.609,-0.0009000000000000001,0.001,-0.018000000000000002,0.0,-0.05,-0.113
1701525912.087,19.609,19.609,-19.609,-0.0019,0.0006000000000000001,-0.0567,-0.011,-0.042,-0.124
1701525912.1269999,19.609,19.609,-19.609,-0.0007,-0.0014,0.0741,-0.005,-0.044,-0.127
1701525912.167,19.609,19.609,-19.609,-0.0006000000000000001,-0.0012000000000000001,-0.055200000000000006,0.0,-0.056,-0.124
1701525912.207,19.609,19.609,-19.609,0.0011,0.0,0.052000000000000005,0.009000000000000001,-0.033,-0.116
1701525912.247,19.609,19.609,-19.609,0.00030000000000000003,0.0001,-0.0367,-0.01,-0.038,-0.128
1701525912.287,19.609,19.609,-19.609,-0.0019,0.0015,0.0308,-0.011,-0.057,-0.125
1701525912.327,19.609,19.609,-19.609,-0.0002,0.002,-0.0563,-0.008,-0.068,-0.121
1701525912.3669999,19.609,19.609,-19.609,0.0002,-0.00030000000000000003,0.0555,0.008,-0.051000000000000004,-0.125
1701525912.407,19.609,19.609,-19.609,0.0,0.0018000000000000002,-0.0285,-0.003,-0.058,-0.122
1701525912.447,19.609,19.609,-19.609,0.0002,-0.0009000000000000001,0.0239,-0.001,-0.067,-0.106
1701525912.487,19.609,19.609,-19.609,-0.0012000000000000001,0.0018000000000000002,-0.0434,0.013000000000000001,-0.033,-0.12
1701525912.527,19.609,19.609,-19.609,-0.0015,0.00030000000000000003,0.027700000000000002,0.003,-0.042,-0.123
1701525912.567,19.609,19.609,-19.609,0.0,0.0009000000000000001,-0.0297,-0.022,-0.044,-0.121
1701525912.6069999,19.609,19.609,-19.609,-0.0043,0.0013000000000000002,0.0269,-0.016,-0.049,-0.11800000000000001
1701525912.647,19.609,19.609,-19.609,-0.001,-0.0001,-0.0446,-0.002,-0.034,-0.122
1701525912.687,19.609,19.609,-19.609,-0.0006000000000000001,-0.0006000000000000001,0.035500000000000004,-0.005,-0.049,-0.115
1701525912.727,19.609,19.609,-19.609,0.0,-0.0007,-0.0258,0.001,-0.047,-0.121
1701525912.767,19.609,19.609,-19.609,-0.0012000000000000001,0.0023,0.0262,-0.018000000000000002,-0.053,-0.117
1701525912.807,19.609,19.609,-19.609,0.0015,0.0,-0.0303,-0.033,-0.049,-0.113
1701525912.847,19.609,19.609,-19.609,-0.0017000000000000001,0.0005,-0.039900000000000005,-0.009000000000000001,-0.07200000000000001,-0.117
1701525912.887,19.609,19.609,-19.609,0.0017000000000000001,0.0016,0.0632,0.015,-0.049,-0.11900000000000001
1701525912.927,19.609,19.609,-19.609,-0.0014,0.0001,-0.0505,-0.007,-0.06,-0.11
1701525912.967,19.609,19.609,-19.609,-0.0014,-0.0009000000000000001,0.0443,-0.014,-0.05,-0.117
1701525913.007,19.609,19.609,-19.609,0.001,0.0004,-0.0425,-0.006,-0.052000000000000005,-0.122
1701525913.047,19.609,19.609,-19.609,-0.0009000000000000001,-0.0018000000000000002,-0.0274,-0.011,-0.057,-0.111
1701525913.087,19.609,19.609,-19.609,-0.001,-0.0012000000000000001,-0.009600000000000001,-0.007,-0.054,-0.107
1701525913.127,19.609,19.609,-19.609,-0.0009000000000000001,0.0011,0.064,-0.005,-0.051000000000000004,-0.107
1701525913.167,19.609,19.609,-19.609,-0.0002,-0.0002,-0.0164,-0.005,-0.052000000000000005,-0.10300000000000001
1701525913.207,19.609,19.609,-19.609,0.0012000000000000001,-0.00030000000000000003,0.0041,0.0,-0.05,-0.10300000000000001
1701525913.247,19.609,19.609,-19.609,-0.0006000000000000001,-0.0017000000000000001,0.0046,0.021,-0.039,-0.114
1701525913.287,19.609,19.609,-19.609,-0.0023,-0.0009000000000000001,-0.046200000000000005,0.007,-0.046,-0.121
1701525913.327,19.609,19.609,-19.609,0.0002,-0.0006000000000000001,0.0362,-0.011,-0.036000000000000004,-0.124
1701525913.367,19.609,19.609,-19.609,0.0004,0.0012000000000000001,-0.0448,-0.016,-0.034,-0.126
1701525913.407,19.609,19.609,-19.609,-0.0002,-0.00030000000000000003,0.0458,-0.005,-0.036000000000000004,-0.114
1701525913.447,19.609,19.609,-19.609,0.00030000000000000003,0.001,-0.0446,0.006,-0.036000000000000004,-0.109
1701525913.487,19.609,19.609,-19.609,0.0012000000000000001,-0.002,0.034,0.012,-0.04,-0.114
1701525913.527,19.609,19.609,-19.609,-0.0031000000000000003,0.00030000000000000003,-0.0036000000000000003,-0.005,-0.049,-0.123
1701525913.567,19.609,19.609,-19.609,-0.0025,0.0006000000000000001,-0.015700000000000002,-0.019,-0.057,-0.113
1701525913.607,19.609,19.609,-19.609,0.0018000000000000002,-0.0015,0.0,-0.006,-0.044,-0.107
1701525913.647,19.609,19.609,-19.609,-0.0008,-0.004,-0.0392,0.007,-0.043000000000000003,-0.122
1701525913.687,19.609,19.609,-19.609,-0.0005,-0.001,-0.055600000000000004,-0.015,-0.049,-0.112
1701525913.727,19.609,19.609,-19.609,0.0006000000000000001,0.0015,0.059800000000000006,-0.021,-0.044,-0.113
1701525913.767,19.609,19.609,-19.609,-0.0006000000000000001,0.0001,-0.0198,-0.015,-0.033,-0.115
1701525913.807,19.609,19.609,-19.609,-0.00030000000000000003,-0.0007,0.0178,-0.009000000000000001,-0.052000000000000005,-0.111
1701525913.847,19.609,19.609,-19.609,0.0009000000000000001,-0.0026000000000000003,-0.0582,-0.017,-0.051000000000000004,-0.107
1701525913.8869998,19.609,19.609,-19.609,-0.00030000000000000003,0.001,0.049100000000000005,-0.016,-0.033,-0.11800000000000001
1701525913.927,19.609,19.609,-19.609,0.0001,-0.0001,-0.0012000000000000001,-0.013000000000000001,-0.028,-0.099
1701525913.967,19.609,19.609,-19.609,-0.0017000000000000001,0.0009000000000000001,-0.0152,-0.014,-0.029,-0.093
1701525914.007,19.609,19.609,-19.609,-0.0014,0.0,0.007200000000000001,0.012,-0.03,-0.095
1701525914.047,19.609,19.609,-19.609,-0.0017000000000000001,-0.0014,0.0078000000000000005,0.009000000000000001,-0.024,-0.096
1701525914.087,19.609,19.609,-19.609,-0.0016,0.0007,-0.0368,0.0,-0.035,-0.108
1701525914.1269999,19.609,19.609,-19.609,-0.0006000000000000001,-0.0014,0.009300000000000001,-0.01,-0.036000000000000004,-0.11900000000000001
1701525914.167,19.609,19.609,-19.609,-0.0005,0.0,0.0046,-0.01,-0.036000000000000004,-0.117
1701525914.207,19.609,19.609,-19.609,0.0015,-0.001,0.0004,-0.009000000000000001,-0.029,-0.117
1701525914.247,19.609,19.609,-19.609,-0.0001,-0.00030000000000000003,0.0004,0.009000000000000001,-0.039,-0.105
1701525914.287,19.609,19.609,-19.609,-0.0021000000000000003,0.0009000000000000001,-0.042100000000000005,0.008,-0.052000000000000005,-0.10300000000000001
1701525914.327,19.609,19.609,-19.609,-0.0005,-0.0004,0.006500000000000001,0.014,-0.052000000000000005,-0.09
1701525914.3669999,19.609,19.609,-19.609,-0.0002,0.00030000000000000003,0.0233,0.019,-0.031,-0.107
1701525914.407,19.609,19.609,-19.609,-0.0007,-0.001,-0.012100000000000001,0.018000000000000002,-0.039,-0.106
1701525914.447,19.609,19.609,-19.609,0.0051,0.0004,0.0006000000000000001,-0.006,-0.035,-0.115
1701525914.487,19.609,19.609,-19.609,-0.0007,0.001,-0.0082,0.008,-0.034,-0.11900000000000001
1701525914.527,19.609,19.609,-19.609,-0.001,-0.00030000000000000003,0.0145,-0.018000000000000002,-0.04,-0.116
1701525914.567,19.609,19.609,-19.609,0.0001,-0.0006000000000000001,-0.0241,-0.008,-0.052000000000000005,-0.088
1701525914.6069999,19.609,19.609,-19.609,0.0004,0.0004,0.0145,0.008,-0.049,-0.084
1701525914.647,19.609,19.609,-19.609,0.0024000000000000002,-0.0001,-0.019700000000000002,0.037,-0.018000000000000002,-0.1
1701525914.687,19.609,19.609,-19.609,-0.0009000000000000001,0.0024000000000000002,0.0103,0.029,-0.025,-0.10400000000000001
1701525914.727,19.609,19.609,-19.609,0.0013000000000000002,-0.001,-0.0323,-0.016,-0.042,-0.098
1701525914.767,19.609,19.609,-19.609,-0.0013000000000000002,0.0013000000000000002,0.0324,-0.018000000000000002,-0.029,-0.112
1701525914.807,19.609,19.609,-19.609,-0.0013000000000000002,-0.00030000000000000003,-0.027100000000000003,-0.007,-0.035,-0.112
1701525914.847,19.609,19.609,-19.609,0.0023,0.0016,0.021,-0.012,-0.055,-0.106
1701525914.887,19.609,19.609,-19.609,-0.0015,0.0006000000000000001,-0.0673,0.0,-0.053,-0.105
1701525914.927,19.609,19.609,-19.609,-0.0004,-0.0007,0.0695,0.006,-0.052000000000000005,-0.109
1701525914.967,19.609,19.609,-19.609,-0.0012000000000000001,-0.0005,-0.0102,0.003,-0.045,-0.114
1701525915.007,19.609,19.609,-19.609,-0.0006000000000000001,0.001,-0.057600000000000005,-0.003,-0.036000000000000004,-0.11900000000000001
1701525915.047,19.609,19.609,-19.609,-0.001,0.0031000000000000003,0.055900000000000005,-0.011,-0.036000000000000004,-0.133
1701525915.087,19.609,19.609,-19.609,-0.005200000000000001,-0.0006000000000000001,-0.0538,-0.022,-0.037,-0.123
1701525915.127,19.609,19.609,-19.609,-0.0014,-0.0001,0.0558,0.001,-0.043000000000000003,-0.11900000000000001
1701525915.167,19.609,19.609,-19.609,0.0002,0.00030000000000000003,-0.0596,0.002,-0.052000000000000005,-0.125
1701525915.207,19.609,19.609,-19.609,0.0016,0.0004,0.048,-0.013000000000000001,-0.06,-0.117
1701525915.247,19.609,19.609,-19.609,-0.0014,0.00030000000000000003,0.0034000000000000002,-0.011,-0.049,-0.11900000000000001
1701525915.287,19.609,19.609,-19.609,0.0001,0.001,-0.0413,-0.002,-0.043000000000000003,-0.127
1701525915.327,19.609,19.609,-19.609,0.0001,-0.0008,0.029900000000000003,-0.001,-0.051000000000000004,-0.122
1701525915.367,19.609,19.609,-19.609,0.0008,0.0004,-0.0149,-0.009000000000000001,-0.053,-0.11
1701525915.407,19.609,19.609,-19.609,0.001,0.0004,-0.055900000000000005,0.001,-0.052000000000000005,-0.11900000000000001
1701525915.447,19.609,19.609,-19.609,-0.0001,-0.0011,0.0245,-0.005,-0.053,-0.126
1701525915.487,19.609,19.609,-19.609,-0.0011,0.0,-0.052000000000000005,-0.017,-0.056,-0.12
1701525915.527,19.609,19.609,-19.609,0.002,0.0009000000000000001,0.0325,-0.014,-0.039,-0.12
1701525915.567,19.609,19.609,-19.609,-0.0005,-0.0007,-0.019700000000000002,-0.003,-0.038,-0.121
1701525915.607,19.609,19.609,-19.609,0.0002,0.0014,-0.007,-0.007,-0.03,-0.117
1701525915.647,19.609,19.609,-19.609,0.00030000000000000003,0.0004,0.0181,-0.01,-0.039,-0.117
1701525915.687,19.609,19.609,-19.609,0.0001,0.0001,-0.0111,-0.01,-0.037,-0.128
1701525915.727,19.609,19.609,-19.609,0.0005,0.0018000000000000002,-0.0067,-0.016,-0.043000000000000003,-0.11900000000000001
1701525915.767,19.609,19.609,-19.609,-0.0002,-0.00030000000000000003,0.014400000000000001,-0.013000000000000001,-0.052000000000000005,-0.11900000000000001
1701525915.807,19.609,19.609,-19.609,-0.0014,-0.0012000000000000001,-0.037700000000000004,-0.006,-0.06,-0.131
1701525915.847,19.609,19.609,-19.609,0.0,0.0002,0.024200000000000003,-0.015,-0.048,-0.113
1701525915.8869998,19.609,19.609,-19.609,-0.0007,-0.00030000000000000003,-0.0531,-0.011,-0.046,-0.10300000000000001
1701525915.927,19.609,19.609,-19.609,0.0014,-0.0006000000000000001,0.040600000000000004,0.013000000000000001,-0.055,-0.11800000000000001
1701525915.967,19.609,19.609,-19.609,0.001,-0.0009000000000000001,-0.0509,0.003,-0.06,-0.124
1701525916.007,19.609,19.609,-19.609,-0.0007,-0.0004,0.0438,-0.015,-0.052000000000000005,-0.109
1701525916.047,19.609,19.609,-19.609,0.0004,0.0032,-0.033,0.0,-0.054,-0.124
1701525916.087,19.609,19.609,-19.609,-0.0014,-0.0008,0.0172,0.005,-0.057,-0.135
1701525916.1269999,19.609,19.609,-19.609,-0.0001,0.0002,0.0115,-0.02,-0.058,-0.123
1701525916.167,19.609,19.609,-19.609,0.0009000000000000001,0.0,0.0068000000000000005,-0.007,-0.049,-0.131
1701525916.207,19.609,19.609,-19.609,0.001,0.0044,-0.006,-0.004,-0.039,-0.125
1701525916.247,19.609,19.609,-19.609,-0.0001,0.0001,-0.049100000000000005,-0.014,-0.036000000000000004,-0.113
1701525916.287,19.609,19.609,-19.609,-0.0008,-0.0018000000000000002,0.0419,0.001,-0.02,-0.112
1701525916.327,19.609,19.609,-19.609,-0.0023,-0.0004,0.004,0.008,-0.019,-0.123
1701525916.3669999,19.609,19.609,-19.609,-0.0029000000000000002,0.0,-0.038400000000000004,-0.005,-0.029,-0.11900000000000001
1701525916.407,19.609,19.609,-19.609,0.0001,0.002,0.0329,-0.015,-0.04,-0.11900000000000001
1701525916.447,19.609,19.609,-19.609,0.00030000000000000003,-0.0006000000000000001,-0.0291,-0.015,-0.039,-0.124
1701525916.487,19.609,19.609,-19.609,-0.0001,-0.0007,0.0247,-0.02,-0.038,-0.121
1701525916.527,19.609,19.609,-19.609,-0.0014,0.0004,0.004200000000000001,0.0,-0.027,-0.114
1701525916.567,19.609,19.609,-19.609,-0.0004,0.0006000000000000001,-0.0302,0.002,-0.046,-0.121
1701525916.6069999,19.609,19.609,-19.609,-0.0007,-0.0009000000000000001,0.014700000000000001,0.007,-0.044,-0.099
1701525916.647,19.609,19.609,-19.609,0.0006000000000000001,0.0,-0.0332,-0.014,-0.037,-0.096
1701525916.687,19.609,19.609,-19.609,0.0,-0.0007,0.014,-0.002,-0.051000000000000004,-0.116
1701525916.727,19.609,19.609,-19.609,-0.0031000000000000003,-0.0006000000000000001,0.0131,-0.015,-0.051000000000000004,-0.1
1701525916.767,19.609,19.609,-19.609,-0.0002,0.0021000000000000003,0.0015,-0.019,-0.047,-0.095
1701525916.807,19.609,19.609,-19.609,0.0009000000000000001,-0.0006000000000000001,-0.055400000000000005,0.0,-0.027,-0.098
1701525916.847,19.609,19.609,-19.609,-0.0006000000000000001,0.0012000000000000001,0.018600000000000002,0.008,-0.026000000000000002,-0.10300000000000001
1701525916.887,19.609,19.609,-19.609,-0.0004,0.0018000000000000002,0.0223,-0.004,-0.032,-0.097
1701525916.927,19.609,19.609,-19.609,0.0006000000000000001,-0.00030000000000000003,-0.039400000000000004,0.008,-0.038,-0.12
1701525916.967,19.609,19.609,-19.609,0.0006000000000000001,-0.0027,0.0393,0.0,-0.04,-0.124
1701525917.007,19.609,19.609,-19.609,-0.0026000000000000003,0.0002,-0.0302,-0.03,-0.045,-0.116
1701525917.047,19.609,19.609,-19.609,0.0013000000000000002,0.001,0.0221,-0.013000000000000001,-0.038,-0.12
1701525917.087,19.609,19.609,-19.609,-0.0016,-0.0008,-0.046200000000000005,0.009000000000000001,-0.024,-0.122
1701525917.127,19.609,19.609,-19.609,-0.0007,-0.0001,0.0334,0.001,-0.027,-0.11800000000000001
